Folder: TestRepo (part 2)

File: 000392_correction_saphire_2_1450_Air-static.txt
#FILE:                 ;000392_correction_saphire_2_1450_Air-static.cle
#FORMAT:               ;NETZSCH5
#IDENTITY:             ;000392
#DECIMAL:              ;POINT
#SEPARATOR:            ;SEMICOLON
#MTYPE:                ;DIL
#MSUBTYPE:             ;
#INSTRUMENT:           ;NETZSCH DIL 402 C
#PROJECT:              ;
#DATE/TIME:            ;21.06.2021 21:23:43
#CORR. FILE:           ;
#LABORATORY:           ;НМ
#OPERATOR:             ;Орлов Н.
#REMARK:               ;
#SAMPLE:               ;corr_2
#SAMPLE LENGTH /mm:    ;3.010
#MATERIAL:             ;стандартный образец
#MEASMODE:             ;Standard Expansion
#PURGE GAS 1:          ;
#FLOW RATE 1 /(ml/min):;0
#CORR. CODE:           ;000
#RANGE:                ;40.0/2.0(K/мин)/1450.0
#SEGMENT:              ;S1/1

##Temp./°C;Time/min;dL/Lo
  40.45700;0.0000e+000; 0.0000e+000
  41.93300;    2.35167;-3.2475e-005
  45.18000;    4.70333;-1.2932e-004
  49.79800;    7.05500;-2.6225e-004
  55.34600;    9.40667;-3.9452e-004
  61.25300;   11.75833;-4.9950e-004
  67.13800;   14.11000;-5.5731e-004
  72.75100;   16.46167;-5.6632e-004
  78.04600;   18.81333;-5.3580e-004
  83.02100;   21.16500;-4.7849e-004
  87.76900;   23.51667;-4.0814e-004
  92.36200;   25.86833;-3.3451e-004
  96.89700;   28.22000;-2.6703e-004
 101.45;   30.57167;-2.0544e-004
 106.053;   32.92333;-1.5287e-004
 110.71;   35.27500;-1.0544e-004
 115.433;   37.62667;-5.9178e-005
 120.183;   39.97833;-1.6030e-005
 124.937;   42.33000; 2.9734e-005
 129.694;   44.68167; 7.6578e-005
 134.432;   47.03333; 1.2458e-004
 139.155;   49.38500; 1.7363e-004
 143.884;   51.73667; 2.2052e-004
 148.594;   54.08833; 2.6939e-004
 153.3;   56.44000; 3.1636e-004
 158.008;   58.79167; 3.6254e-004
 162.723;   61.14333; 4.0943e-004
 167.438;   63.49500; 4.5540e-004
 172.174;   65.84666; 4.9979e-004
 176.881;   68.19833; 5.4456e-004
 181.593;   70.55000; 5.9012e-004
 186.315;   72.90166; 6.3389e-004
 191.015;   75.25333; 6.7521e-004
 195.731;   77.60500; 7.2010e-004
 200.421;   79.95667; 7.6229e-004
 205.139;   82.30833; 8.0228e-004
 209.852;   84.66000; 8.4282e-004
 214.566;   87.01167; 8.8181e-004
 219.277;   89.36333; 9.2251e-004
 223.985;   91.71500; 9.6146e-004
 228.695;   94.06667; 1.0016e-003
 233.406;   96.41833; 1.0419e-003
 238.11;   98.77000; 1.0815e-003
 242.822;  101.122; 1.1201e-003
 247.53;  103.473; 1.1586e-003
 252.238;  105.825; 1.1973e-003
 256.952;  108.177; 1.2358e-003
 261.66;  110.528; 1.2730e-003
 266.359;  112.88; 1.3102e-003
 271.069;  115.232; 1.3484e-003
 275.772;  117.583; 1.3879e-003
 280.474;  119.935; 1.4246e-003
 285.195;  122.287; 1.4610e-003
 289.899;  124.638; 1.4976e-003
 294.598;  126.99; 1.5346e-003
 299.31;  129.342; 1.5699e-003
 304.019;  131.693; 1.6063e-003
 308.724;  134.045; 1.6418e-003
 313.432;  136.397; 1.6749e-003
 318.14;  138.748; 1.7115e-003
 322.841;  141.1; 1.7467e-003
 327.542;  143.452; 1.7803e-003
 332.248;  145.803; 1.8144e-003
 336.954;  148.155; 1.8501e-003
 341.666;  150.507; 1.8856e-003
 346.362;  152.858; 1.9174e-003
 351.069;  155.21; 1.9502e-003
 355.778;  157.562; 1.9861e-003
 360.485;  159.913; 2.0189e-003
 365.189;  162.265; 2.0524e-003
 369.887;  164.617; 2.0847e-003
 374.601;  166.968; 2.1165e-003
 379.304;  169.32; 2.1507e-003
 384;  171.672; 2.1802e-003
 388.709;  174.023; 2.2137e-003
 393.419;  176.375; 2.2456e-003
 398.123;  178.727; 2.2786e-003
 402.823;  181.078; 2.3129e-003
 407.532;  183.43; 2.3449e-003
 412.238;  185.782; 2.3736e-003
 416.935;  188.133; 2.4078e-003
 421.646;  190.485; 2.4405e-003
 426.345;  192.837; 2.4723e-003
 431.055;  195.188; 2.5030e-003
 435.753;  197.54; 2.5356e-003
 440.463;  199.892; 2.5691e-003
 445.168;  202.243; 2.6023e-003
 449.866;  204.595; 2.6338e-003
 454.573;  206.947; 2.6689e-003
 459.267;  209.298; 2.7010e-003
 463.97;  211.65; 2.7349e-003
 468.678;  214.002; 2.7664e-003
 473.383;  216.353; 2.7995e-003
 478.089;  218.705; 2.8340e-003
 482.79;  221.057; 2.8668e-003
 487.487;  223.408; 2.8977e-003
 492.192;  225.76; 2.9313e-003
 496.897;  228.112; 2.9639e-003
 501.592;  230.463; 2.9945e-003
 506.307;  232.815; 3.0289e-003
 511.017;  235.167; 3.0586e-003
 515.719;  237.518; 3.0924e-003
 520.408;  239.87; 3.1264e-003
 525.119;  242.222; 3.1578e-003
 529.824;  244.573; 3.1923e-003
 534.526;  246.925; 3.2275e-003
 539.234;  249.277; 3.2604e-003
 543.928;  251.628; 3.2945e-003
 548.637;  253.98; 3.3324e-003
 553.342;  256.332; 3.3648e-003
 558.051;  258.683; 3.3955e-003
 562.749;  261.035; 3.4319e-003
 567.455;  263.387; 3.4630e-003
 572.15;  265.738; 3.4969e-003
 576.849;  268.09; 3.5300e-003
 581.551;  270.442; 3.5655e-003
 586.262;  272.793; 3.6016e-003
 590.955;  275.145; 3.6328e-003
 595.665;  277.497; 3.6680e-003
 600.361;  279.848; 3.7023e-003
 605.056;  282.2; 3.7354e-003
 609.763;  284.552; 3.7718e-003
 614.468;  286.903; 3.8071e-003
 619.169;  289.255; 3.8439e-003
 623.871;  291.607; 3.8801e-003
 628.565;  293.958; 3.9157e-003
 633.263;  296.31; 3.9529e-003
 637.982;  298.662; 3.9855e-003
 642.681;  301.013; 4.0240e-003
 647.374;  303.365; 4.0562e-003
 652.082;  305.717; 4.0956e-003
 656.78;  308.068; 4.1293e-003
 661.482;  310.42; 4.1679e-003
 666.189;  312.772; 4.2056e-003
 670.883;  315.123; 4.2449e-003
 675.582;  317.475; 4.2778e-003
 680.298;  319.827; 4.3132e-003
 684.993;  322.178; 4.3530e-003
 689.697;  324.53; 4.3903e-003
 694.395;  326.882; 4.4276e-003
 699.103;  329.233; 4.4650e-003
 703.808;  331.585; 4.5012e-003
 708.506;  333.937; 4.5398e-003
 713.206;  336.288; 4.5789e-003
 717.911;  338.64; 4.6189e-003
 722.598;  340.992; 4.6569e-003
 727.297;  343.343; 4.6927e-003
 732.002;  345.695; 4.7330e-003
 736.705;  348.047; 4.7721e-003
 741.409;  350.398; 4.8118e-003
 746.11;  352.75; 4.8503e-003
 750.817;  355.102; 4.8946e-003
 755.508;  357.453; 4.9328e-003
 760.213;  359.805; 4.9732e-003
 764.918;  362.157; 5.0143e-003
 769.617;  364.508; 5.0544e-003
 774.306;  366.86; 5.0910e-003
 779.008;  369.212; 5.1349e-003
 783.706;  371.563; 5.1729e-003
 788.417;  373.915; 5.2129e-003
 793.118;  376.267; 5.2532e-003
 797.822;  378.618; 5.2971e-003
 802.527;  380.97; 5.3391e-003
 807.239;  383.322; 5.3819e-003
 811.939;  385.673; 5.4258e-003
 816.643;  388.025; 5.4713e-003
 821.335;  390.377; 5.5098e-003
 826.04;  392.728; 5.5525e-003
 830.739;  395.08; 5.5988e-003
 835.446;  397.432; 5.6411e-003
 840.146;  399.783; 5.6829e-003
 844.855;  402.135; 5.7253e-003
 849.551;  404.487; 5.7670e-003
 854.242;  406.838; 5.8046e-003
 858.945;  409.19; 5.8542e-003
 863.647;  411.542; 5.8919e-003
 868.348;  413.893; 5.9373e-003
 873.063;  416.245; 5.9832e-003
 877.755;  418.597; 6.0282e-003
 882.448;  420.948; 6.0692e-003
 887.162;  423.3; 6.1116e-003
 891.858;  425.652; 6.1589e-003
 896.57;  428.003; 6.2003e-003
 901.268;  430.355; 6.2480e-003
 905.97;  432.707; 6.2889e-003
 910.674;  435.058; 6.3336e-003
 915.377;  437.41; 6.3809e-003
 920.077;  439.762; 6.4226e-003
 924.786;  442.113; 6.4692e-003
 929.469;  444.465; 6.5155e-003
 934.181;  446.817; 6.5561e-003
 938.886;  449.168; 6.6040e-003
 943.586;  451.52; 6.6481e-003
 948.284;  453.872; 6.6933e-003
 952.981;  456.223; 6.7390e-003
 957.684;  458.575; 6.7835e-003
 962.399;  460.927; 6.8280e-003
 967.096;  463.278; 6.8739e-003
 971.78;  465.63; 6.9211e-003
 976.494;  467.982; 6.9624e-003
 981.209;  470.333; 7.0099e-003
 985.894;  472.685; 7.0545e-003
 990.598;  475.037; 7.1024e-003
 995.307;  477.388; 7.1509e-003
1000.02;  479.74; 7.1938e-003
1004.71;  482.092; 7.2383e-003
1009.41;  484.443; 7.2887e-003
1014.12;  486.795; 7.3376e-003
1018.83;  489.147; 7.3868e-003
1023.52;  491.498; 7.4332e-003
1028.22;  493.85; 7.4839e-003
1032.94;  496.202; 7.5309e-003
1037.64;  498.553; 7.5773e-003
1042.33;  500.905; 7.6287e-003
1047.04;  503.257; 7.6777e-003
1051.74;  505.608; 7.7247e-003
1056.43;  507.96; 7.7803e-003
1061.14;  510.312; 7.8344e-003
1065.86;  512.663; 7.8833e-003
1070.55;  515.015; 7.9280e-003
1075.24;  517.367; 7.9820e-003
1079.95;  519.718; 8.0303e-003
1084.65;  522.07; 8.0821e-003
1089.36;  524.422; 8.1310e-003
1094.06;  526.773; 8.1836e-003
1098.76;  529.125; 8.2358e-003
1103.47;  531.477; 8.2811e-003
1108.15;  533.828; 8.3394e-003
1112.86;  536.18; 8.3896e-003
1117.57;  538.532; 8.4406e-003
1122.29;  540.883; 8.4904e-003
1126.97;  543.235; 8.5427e-003
1131.68;  545.587; 8.5960e-003
1136.38;  547.938; 8.6490e-003
1141.07;  550.29; 8.7037e-003
1145.79;  552.642; 8.7495e-003
1150.49;  554.993; 8.8007e-003
1155.2;  557.345; 8.8569e-003
1159.88;  559.697; 8.9065e-003
1164.58;  562.048; 8.9633e-003
1169.31;  564.4; 9.0103e-003
1174.01;  566.752; 9.0589e-003
1178.71;  569.103; 9.1125e-003
1183.41;  571.455; 9.1702e-003
1188.11;  573.807; 9.2189e-003
1192.82;  576.158; 9.2667e-003
1197.51;  578.51; 9.3115e-003
1202.21;  580.862; 9.3662e-003
1206.93;  583.213; 9.4240e-003
1211.64;  585.565; 9.4724e-003
1216.34;  587.917; 9.5312e-003
1221.04;  590.268; 9.5727e-003
1225.74;  592.62; 9.6281e-003
1230.43;  594.972; 9.6786e-003
1235.16;  597.323; 9.7243e-003
1239.85;  599.675; 9.7723e-003
1244.56;  602.027; 9.8234e-003
1249.26;  604.378; 9.8755e-003
1253.96;  606.73; 9.9282e-003
1258.66;  609.082; 9.9747e-003
1263.37;  611.433; 1.0023e-002
1268.06;  613.785; 1.0067e-002
1272.78;  616.137; 1.0106e-002
1277.47;  618.488; 1.0152e-002
1282.18;  620.84; 1.0196e-002
1286.86;  623.192; 1.0238e-002
1291.58;  625.543; 1.0273e-002
1296.29;  627.895; 1.0303e-002
1300.99;  630.247; 1.0345e-002
1305.7;  632.598; 1.0388e-002
1310.39;  634.95; 1.0421e-002
1315.09;  637.302; 1.0448e-002
1319.79;  639.653; 1.0474e-002
1324.51;  642.005; 1.0494e-002
1329.22;  644.357; 1.0525e-002
1333.92;  646.708; 1.0556e-002
1338.62;  649.06; 1.0576e-002
1343.31;  651.412; 1.0600e-002
1348.02;  653.763; 1.0616e-002
1352.73;  656.115; 1.0636e-002
1357.43;  658.467; 1.0646e-002
1362.12;  660.818; 1.0661e-002
1366.83;  663.17; 1.0667e-002
1371.53;  665.522; 1.0679e-002
1376.24;  667.873; 1.0677e-002
1380.94;  670.225; 1.0681e-002
1385.64;  672.577; 1.0677e-002
1390.35;  674.928; 1.0693e-002
1395.06;  677.28; 1.0685e-002
1399.76;  679.632; 1.0674e-002
1404.45;  681.983; 1.0664e-002
1409.17;  684.335; 1.0638e-002
1413.87;  686.687; 1.0626e-002
1418.6;  689.038; 1.0597e-002
1423.28;  691.39; 1.0559e-002
1427.97;  693.742; 1.0520e-002
1432.71;  696.093; 1.0483e-002
1437.39;  698.445; 1.0441e-002
1442.1;  700.797; 1.0392e-002
1446.8;  703.148; 1.0335e-002
1450.48;  704.99; 1.0286e-002

File: 000393_K06_20_1450_Air-static.txt
#FILE:                 ;000393_K06_20_1450_Air-static.sle
#FORMAT:               ;NETZSCH5
#IDENTITY:             ;000393
#DECIMAL:              ;POINT
#SEPARATOR:            ;SEMICOLON
#MTYPE:                ;DIL
#MSUBTYPE:             ;
#INSTRUMENT:           ;NETZSCH DIL 402 C
#PROJECT:              ;
#DATE/TIME:            ;22.06.2021 12:24:13
#CORR. FILE:           ;
#LABORATORY:           ;НМ
#OPERATOR:             ;Орлов Н.
#REMARK:               ;
#SAMPLE:               ;K06_20
#SAMPLE LENGTH /mm:    ;2.170
#MATERIAL:             ;стандартный образец
#MEASMODE:             ;Standard Expansion
#PURGE GAS 1:          ;
#FLOW RATE 1 /(ml/min):;0
#CORR. CODE:           ;000
#RANGE:                ;40.0/20.0(K/мин)/1450.0
#SEGMENT:              ;S1/1

##Temp./°C;Time/min;dL/Lo
  40.47500;0.0000e+000; 0.0000e+000
  40.52800;    0.24000;-9.2166e-006
  41.13900;    0.48000;-2.4194e-005
  42.58100;    0.72000;-5.5300e-005
  44.11900;    0.96000;-1.0253e-004
  45.69400;    1.20000;-1.5726e-004
  47.58300;    1.44000;-2.2293e-004
  50.00800;    1.68000;-2.9896e-004
  52.68100;    1.92000;-3.9055e-004
  55.55800;    2.16000;-4.9539e-004
  58.72700;    2.40000;-6.1233e-004
  62.24900;    2.64000;-7.4251e-004
  66.03400;    2.88000;-8.8479e-004
  70.06300;    3.12000;-1.0415e-003
  74.36800;    3.36000;-1.2091e-003
  78.92000;    3.60000;-1.3882e-003
  83.71700;    3.84000;-1.5801e-003
  88.72700;    4.08000;-1.7794e-003
  93.91500;    4.32000;-1.9856e-003
  99.26400;    4.56000;-2.2028e-003
 104.778;    4.80000;-2.4257e-003
 110.424;    5.04000;-2.6457e-003
 116.191;    5.28000;-2.8658e-003
 122.101;    5.52000;-3.0818e-003
 128.106;    5.76000;-3.2915e-003
 134.088;    6.00000;-3.4977e-003
 139.501;    6.24000;-3.6964e-003
 144.873;    6.48000;-3.8865e-003
 150.466;    6.72000;-4.0651e-003
 155.978;    6.96000;-4.2287e-003
 161.452;    7.20000;-4.3813e-003
 166.942;    7.44000;-4.5230e-003
 172.391;    7.68000;-4.6550e-003
 177.858;    7.92000;-4.7667e-003
 183.304;    8.16000;-4.8675e-003
 188.743;    8.40000;-4.9533e-003
 194.156;    8.64000;-5.0202e-003
 199.581;    8.88000;-5.0737e-003
 204.987;    9.12000;-5.1089e-003
 210.394;    9.36000;-5.1285e-003
 215.792;    9.60000;-5.1342e-003
 221.176;    9.84000;-5.1244e-003
 226.582;   10.08000;-5.0991e-003
 231.939;   10.32000;-5.0611e-003
 237.336;   10.56000;-5.0138e-003
 242.707;   10.80000;-4.9574e-003
 248.084;   11.04000;-4.8894e-003
 253.487;   11.28000;-4.8157e-003
 258.984;   11.52000;-4.7316e-003
 264.617;   11.76000;-4.6331e-003
 270.392;   12.00000;-4.5242e-003
 276.056;   12.24000;-4.4113e-003
 281.613;   12.48000;-4.2932e-003
 287.063;   12.72000;-4.1694e-003
 292.44;   12.96000;-4.0340e-003
 297.819;   13.20000;-3.8894e-003
 303.197;   13.44000;-3.7391e-003
 308.597;   13.68000;-3.5806e-003
 314.016;   13.92000;-3.4194e-003
 319.414;   14.16000;-3.2546e-003
 324.841;   14.40000;-3.0893e-003
 330.262;   14.64000;-2.9211e-003
 335.658;   14.88000;-2.7529e-003
 341.08;   15.12000;-2.5795e-003
 346.481;   15.36000;-2.4055e-003
 351.826;   15.60000;-2.2281e-003
 357.392;   15.84000;-2.0501e-003
 362.945;   16.08000;-1.8750e-003
 367.268;   16.32000;-1.6849e-003
 371.378;   16.56000;-1.4971e-003
 375.545;   16.80000;-1.3232e-003
 379.921;   17.04000;-1.1555e-003
 384.555;   17.28000;-1.0017e-003
 389.419;   17.52000;-8.5772e-004
 394.418;   17.76000;-7.1832e-004
 399.517;   18.00000;-5.8007e-004
 404.635;   18.24000;-4.4009e-004
 409.771;   18.48000;-2.9954e-004
 414.908;   18.72000;-1.6071e-004
 420.039;   18.96000;-1.6129e-005
 425.145;   19.20000; 1.2558e-004
 430.252;   19.44000; 2.7247e-004
 435.348;   19.68000; 4.1936e-004
 440.428;   19.92000; 5.7200e-004
 445.497;   20.16000; 7.2293e-004
 450.562;   20.40000; 8.7730e-004
 455.61;   20.64000; 1.0340e-003
 460.623;   20.88000; 1.1930e-003
 465.642;   21.12000; 1.3531e-003
 470.64;   21.36000; 1.5184e-003
 475.628;   21.60000; 1.6843e-003
 480.593;   21.84000; 1.8525e-003
 485.558;   22.08000; 2.0219e-003
 490.485;   22.32000; 2.1895e-003
 495.409;   22.56000; 2.3635e-003
 500.336;   22.80000; 2.5392e-003
 505.212;   23.04000; 2.7103e-003
 510.088;   23.28000; 2.8836e-003
 514.97;   23.52000; 3.0570e-003
 519.834;   23.76000; 3.2270e-003
 524.681;   24.00000; 3.4027e-003
 529.541;   24.24000; 3.5795e-003
 534.379;   24.48000; 3.7540e-003
 539.208;   24.72000; 3.9245e-003
 544.04;   24.96000; 4.1008e-003
 548.875;   25.20000; 4.2707e-003
 553.691;   25.44000; 4.4447e-003
 558.498;   25.68000; 4.6129e-003
 563.307;   25.92000; 4.7846e-003
 568.093;   26.16000; 4.9551e-003
 572.89;   26.40000; 5.1192e-003
 577.686;   26.64000; 5.2851e-003
 582.49;   26.88000; 5.4505e-003
 587.264;   27.12000; 5.6158e-003
 592.042;   27.36000; 5.7777e-003
 596.822;   27.60000; 5.9389e-003
 601.59;   27.84000; 6.0962e-003
 606.364;   28.08000; 6.2483e-003
 611.145;   28.32000; 6.4027e-003
 615.914;   28.56000; 6.5501e-003
 620.683;   28.80000; 6.7005e-003
 625.441;   29.04000; 6.8491e-003
 630.205;   29.28000; 6.9862e-003
 634.985;   29.52000; 7.1296e-003
 639.742;   29.76000; 7.2702e-003
 644.499;   30.00000; 7.4009e-003
 649.272;   30.24000; 7.5317e-003
 654.036;   30.48000; 7.6688e-003
 658.797;   30.72000; 7.7921e-003
 663.567;   30.96000; 7.9165e-003
 668.329;   31.20000; 8.0374e-003
 673.088;   31.44000; 8.1544e-003
 677.852;   31.68000; 8.2679e-003
 682.615;   31.92000; 8.3813e-003
 687.376;   32.16000; 8.4960e-003
 692.157;   32.40000; 8.6348e-003
 696.919;   32.64000; 8.7673e-003
 701.693;   32.88000; 8.8980e-003
 706.481;   33.12000; 9.0156e-003
 711.235;   33.36000; 9.1331e-003
 715.995;   33.60000; 9.2477e-003
 720.768;   33.84000; 9.3543e-003
 725.52;   34.08000; 9.4562e-003
 730.286;   34.32000; 9.5547e-003
 735.041;   34.56000; 9.6498e-003
 739.797;   34.80000; 9.7385e-003
 744.558;   35.04000; 9.8209e-003
 749.324;   35.28000; 9.8998e-003
 754.08;   35.52000; 9.9781e-003
 758.843;   35.76000; 1.0044e-002
 763.588;   36.00000; 1.0109e-002
 768.351;   36.24000; 1.0169e-002
 773.116;   36.48000; 1.0217e-002
 777.877;   36.72000; 1.0253e-002
 782.652;   36.96000; 1.0297e-002
 787.406;   37.20000; 1.0320e-002
 792.196;   37.44000; 1.0333e-002
 796.946;   37.68000; 1.0343e-002
 801.709;   37.92000; 1.0333e-002
 806.49;   38.16000; 1.0320e-002
 811.244;   38.40000; 1.0290e-002
 816.042;   38.64000; 1.0249e-002
 820.798;   38.88000; 1.0184e-002
 825.56;   39.12000; 1.0110e-002
 830.329;   39.36000; 1.0024e-002
 835.095;   39.60000; 9.9176e-003
 839.863;   39.84000; 9.7949e-003
 844.639;   40.08000; 9.6550e-003
 849.407;   40.32000; 9.4971e-003
 854.17;   40.56000; 9.3214e-003
 858.938;   40.80000; 9.1273e-003
 863.698;   41.04000; 8.9171e-003
 868.479;   41.28000; 8.6872e-003
 873.243;   41.52000; 8.4412e-003
 878.012;   41.76000; 8.1797e-003
 882.776;   42.00000; 7.9015e-003
 887.548;   42.24000; 7.6043e-003
 892.313;   42.48000; 7.2944e-003
 897.085;   42.72000; 6.9729e-003
 901.845;   42.96000; 6.6457e-003
 906.624;   43.20000; 6.3059e-003
 911.397;   43.44000; 5.9528e-003
 916.158;   43.68000; 5.5835e-003
 920.936;   43.92000; 5.2028e-003
 925.701;   44.16000; 4.8116e-003
 930.466;   44.40000; 4.4021e-003
 935.232;   44.64000; 3.9804e-003
 940.007;   44.88000; 3.5444e-003
 944.771;   45.12000; 3.0858e-003
 949.54;   45.36000; 2.5991e-003
 954.308;   45.60000; 2.0657e-003
 959.068;   45.84000; 1.5121e-003
 963.836;   46.08000; 9.4470e-004
 968.621;   46.32000; 3.5714e-004
 973.38;   46.56000;-2.4654e-004
 978.156;   46.80000;-8.7327e-004
 982.919;   47.04000;-1.5277e-003
 987.695;   47.28000;-2.2033e-003
 992.473;   47.52000;-2.8963e-003
 997.244;   47.76000;-3.6037e-003
1002.02;   48.00000;-4.2696e-003
1006.78;   48.24000;-4.9712e-003
1011.56;   48.48000;-5.7010e-003
1016.34;   48.72000;-6.3802e-003
1021.11;   48.96000;-7.1152e-003
1025.89;   49.20000;-7.8969e-003
1030.67;   49.44000;-8.7154e-003
1035.43;   49.68000;-9.5795e-003
1040.22;   49.92000;-1.0478e-002
1044.98;   50.16000;-1.1404e-002
1049.75;   50.40000;-1.2376e-002
1054.53;   50.64000;-1.3368e-002
1059.31;   50.88000;-1.4386e-002
1064.08;   51.12000;-1.5434e-002
1068.85;   51.36000;-1.6498e-002
1073.63;   51.60000;-1.7584e-002
1078.4;   51.84000;-1.8694e-002
1083.19;   52.08000;-1.9808e-002
1087.97;   52.32000;-2.0957e-002
1092.74;   52.56000;-2.2124e-002
1097.5;   52.80000;-2.3321e-002
1102.28;   53.04000;-2.4533e-002
1107.06;   53.28000;-2.5790e-002
1111.84;   53.52000;-2.7066e-002
1116.61;   53.76000;-2.8338e-002
1121.4;   54.00000;-2.9668e-002
1126.18;   54.24000;-3.0999e-002
1130.94;   54.48000;-3.2385e-002
1135.74;   54.72000;-3.3775e-002
1140.52;   54.96000;-3.5202e-002
1145.29;   55.20000;-3.6640e-002
1150.09;   55.44000;-3.8096e-002
1154.86;   55.68000;-3.9580e-002
1159.64;   55.92000;-4.1088e-002
1164.42;   56.16000;-4.2595e-002
1169.2;   56.40000;-4.4158e-002
1173.98;   56.64000;-4.5724e-002
1178.77;   56.88000;-4.7289e-002
1183.55;   57.12000;-4.8850e-002
1188.34;   57.36000;-5.0403e-002
1193.12;   57.60000;-5.1989e-002
1197.9;   57.84000;-5.3562e-002
1202.69;   58.08000;-5.5119e-002
1207.47;   58.32000;-5.6585e-002
1212.27;   58.56000;-5.8089e-002
1217.05;   58.80000;-5.9518e-002
1221.82;   59.04000;-6.0839e-002
1226.61;   59.28000;-6.2148e-002
1231.4;   59.52000;-6.3407e-002
1236.18;   59.76000;-6.4548e-002
1240.96;   60.00000;-6.5718e-002
1245.75;   60.24000;-6.6805e-002
1250.56;   60.48000;-6.7839e-002
1255.33;   60.72000;-6.8887e-002
1260.12;   60.96000;-6.9850e-002
1264.91;   61.20000;-7.0794e-002
1269.71;   61.44000;-7.1730e-002
1274.51;   61.68000;-7.2604e-002
1279.3;   61.92000;-7.3395e-002
1284.1;   62.16000;-7.4253e-002
1288.88;   62.40000;-7.4964e-002
1293.68;   62.64000;-7.5710e-002
1298.48;   62.88000;-7.6357e-002
1303.25;   63.12000;-7.6958e-002
1308.05;   63.36000;-7.7478e-002
1312.85;   63.60000;-7.7968e-002
1317.66;   63.84000;-7.8331e-002
1322.45;   64.08000;-7.8631e-002
1327.23;   64.32000;-7.8978e-002
1332.03;   64.56000;-7.9305e-002
1336.84;   64.80000;-7.9634e-002
1341.61;   65.04000;-7.9994e-002
1346.4;   65.28000;-8.0281e-002
1351.18;   65.52000;-8.0660e-002
1355.97;   65.76000;-8.1062e-002
1360.76;   66.00000;-8.1383e-002
1365.57;   66.24000;-8.1812e-002
1370.37;   66.48000;-8.2395e-002
1375.16;   66.72000;-8.2838e-002
1379.96;   66.96000;-8.3471e-002
1384.75;   67.20000;-8.3805e-002
1389.56;   67.44000;-8.3783e-002
1394.35;   67.68000;-8.3819e-002
1399.15;   67.92000;-8.4074e-002
1403.95;   68.16000;-8.4585e-002
1408.74;   68.40000;-8.4381e-002
1413.55;   68.64000;-8.5075e-002
1418.35;   68.88000;-8.5937e-002
1423.14;   69.12000;-8.5686e-002
1427.93;   69.36000;-8.5139e-002
1432.75;   69.60000;-8.3460e-002
1437.56;   69.84000;-8.3371e-002
1442.35;   70.08000;-7.9589e-002
1447.15;   70.32000;-7.6808e-002
1450.35;   70.48000;-7.6798e-002