Folder: TestRepo (part 5)

File: 000402_K06_10_1335_Air-static.txt
#FILE:                 ;000402_K06_10_1335_Air-static.sle
#FORMAT:               ;NETZSCH5
#IDENTITY:             ;000402
#DECIMAL:              ;POINT
#SEPARATOR:            ;SEMICOLON
#MTYPE:                ;DIL
#MSUBTYPE:             ;
#INSTRUMENT:           ;NETZSCH DIL 402 C
#PROJECT:              ;
#DATE/TIME:            ;28.06.2021 11:45:13
#CORR. FILE:           ;
#LABORATORY:           ;НМ
#OPERATOR:             ;Орлов Н.
#REMARK:               ;
#SAMPLE:               ;K06_10
#SAMPLE LENGTH /mm:    ;3.540
#MATERIAL:             ;стандартный образец
#MEASMODE:             ;Standard Expansion
#PURGE GAS 1:          ;
#FLOW RATE 1 /(ml/min):;0
#CORR. CODE:           ;000
#RANGE:                ;40.0/10.0(K/мин)/1335.0
#SEGMENT:              ;S1/1

##Temp./°C;Time/min;dL/Lo
  40.34100;0.0000e+000; 0.0000e+000
  40.51900;    0.44000;-4.2373e-006
  41.64000;    0.88000;-1.2712e-005
  43.15100;    1.32000;-3.7076e-005
  44.82700;    1.76000;-6.7444e-005
  47.11700;    2.20000;-1.0699e-004
  49.74400;    2.64000;-1.5819e-004
  52.73800;    3.08000;-2.1857e-004
  56.16300;    3.52000;-2.8708e-004
  59.92200;    3.96000;-3.6547e-004
  64.03000;    4.40000;-4.5127e-004
  68.44900;    4.84000;-5.4732e-004
  73.15300;    5.28000;-6.4548e-004
  78.13900;    5.72000;-7.5071e-004
  83.33600;    6.16000;-8.6158e-004
  88.70000;    6.60000;-9.7175e-004
  94.20700;    7.04000;-1.0844e-003
  99.82000;    7.48000;-1.2006e-003
 105.49;    7.92000;-1.3104e-003
 111.214;    8.36000;-1.4188e-003
 116.996;    8.80000;-1.5194e-003
 122.76;    9.24000;-1.6077e-003
 128.537;    9.68000;-1.6871e-003
 134.28;   10.12000;-1.7549e-003
 139.968;   10.56000;-1.8079e-003
 145.554;   11.00000;-1.8506e-003
 150.965;   11.44000;-1.8810e-003
 156.231;   11.88000;-1.8944e-003
 161.441;   12.32000;-1.8944e-003
 166.55;   12.76000;-1.8810e-003
 171.629;   13.20000;-1.8573e-003
 176.639;   13.64000;-1.8234e-003
 181.597;   14.08000;-1.7818e-003
 186.501;   14.52000;-1.7331e-003
 191.339;   14.96000;-1.6773e-003
 196.143;   15.40000;-1.6155e-003
 200.852;   15.84000;-1.5501e-003
 205.566;   16.28000;-1.4802e-003
 210.199;   16.72000;-1.4075e-003
 214.83;   17.16000;-1.3309e-003
 219.42;   17.60000;-1.2521e-003
 223.953;   18.04000;-1.1702e-003
 228.406;   18.48000;-1.0922e-003
 232.845;   18.92000;-1.0226e-003
 237.269;   19.36000;-9.3432e-004
 241.697;   19.80000;-8.4428e-004
 246.11;   20.24000;-7.5883e-004
 250.56;   20.68000;-6.6561e-004
 255.005;   21.12000;-5.7239e-004
 259.458;   21.56000;-4.8058e-004
 263.959;   22.00000;-3.8383e-004
 268.514;   22.44000;-2.8531e-004
 273.138;   22.88000;-1.8397e-004
 277.839;   23.32000;-8.3686e-005
 282.556;   23.76000; 1.9068e-005
 287.215;   24.20000; 1.1441e-004
 291.711;   24.64000; 2.0939e-004
 296.013;   25.08000; 3.0579e-004
 300.053;   25.52000; 4.0078e-004
 303.977;   25.96000; 4.8694e-004
 307.716;   26.40000; 5.7168e-004
 311.322;   26.84000; 6.5466e-004
 314.812;   27.28000; 7.3235e-004
 318.374;   27.72000; 8.0650e-004
 322.158;   28.16000; 8.6759e-004
 326.234;   28.60000; 9.2691e-004
 330.571;   29.04000; 9.7987e-004
 335.051;   29.48000; 1.0307e-003
 339.634;   29.92000; 1.0787e-003
 344.239;   30.36000; 1.1296e-003
 348.836;   30.80000; 1.1871e-003
 353.431;   31.24000; 1.2454e-003
 358.016;   31.68000; 1.3072e-003
 362.573;   32.12000; 1.3672e-003
 367.123;   32.56000; 1.4347e-003
 371.648;   33.00000; 1.5011e-003
 376.161;   33.44000; 1.5724e-003
 380.659;   33.88000; 1.6430e-003
 385.137;   34.32000; 1.7094e-003
 389.603;   34.76000; 1.7814e-003
 394.068;   35.20000; 1.8492e-003
 398.517;   35.64000; 1.9191e-003
 402.951;   36.08000; 1.9845e-003
 407.384;   36.52000; 2.0441e-003
 411.818;   36.96000; 2.1059e-003
 416.23;   37.40000; 2.1582e-003
 420.648;   37.84000; 2.2115e-003
 425.061;   38.28000; 2.2546e-003
 429.467;   38.72000; 2.2963e-003
 433.858;   39.16000; 2.3340e-003
 438.255;   39.60000; 2.3683e-003
 442.646;   40.04000; 2.4011e-003
 447.033;   40.48000; 2.4326e-003
 451.426;   40.92000; 2.4650e-003
 455.809;   41.36000; 2.5025e-003
 460.201;   41.80000; 2.5399e-003
 464.566;   42.24000; 2.5830e-003
 468.965;   42.68000; 2.6331e-003
 473.341;   43.12000; 2.6868e-003
 477.727;   43.56000; 2.7475e-003
 482.113;   44.00000; 2.8167e-003
 486.497;   44.44000; 2.8831e-003
 490.877;   44.88000; 2.9520e-003
 495.278;   45.32000; 3.0297e-003
 499.675;   45.76000; 3.0989e-003
 504.05;   46.20000; 3.1734e-003
 508.453;   46.64000; 3.2472e-003
 512.827;   47.08000; 3.3252e-003
 517.229;   47.52000; 3.4011e-003
 521.629;   47.96000; 3.4725e-003
 526.01;   48.40000; 3.5533e-003
 530.412;   48.84000; 3.6271e-003
 534.795;   49.28000; 3.7013e-003
 539.198;   49.72000; 3.7775e-003
 543.581;   50.16000; 3.8517e-003
 547.989;   50.60000; 3.9319e-003
 552.375;   51.04000; 4.0099e-003
 556.774;   51.48000; 4.0847e-003
 561.181;   51.92000; 4.1557e-003
 565.567;   52.36000; 4.2327e-003
 569.952;   52.80000; 4.3069e-003
 574.358;   53.24000; 4.3782e-003
 578.746;   53.68000; 4.4453e-003
 583.143;   54.12000; 4.5127e-003
 587.531;   54.56000; 4.5826e-003
 591.92;   55.00000; 4.6437e-003
 596.298;   55.44000; 4.7129e-003
 600.704;   55.88000; 4.7715e-003
 605.082;   56.32000; 4.8298e-003
 609.478;   56.76000; 4.8930e-003
 613.864;   57.20000; 4.9477e-003
 618.259;   57.64000; 5.0032e-003
 622.647;   58.08000; 5.0551e-003
 627.033;   58.52000; 5.1038e-003
 631.416;   58.96000; 5.1571e-003
 635.802;   59.40000; 5.2006e-003
 640.179;   59.84000; 5.2373e-003
 644.562;   60.28000; 5.2712e-003
 648.968;   60.72000; 5.3051e-003
 653.343;   61.16000; 5.3340e-003
 657.727;   61.60000; 5.3521e-003
 662.123;   62.04000; 5.3704e-003
 666.51;   62.48000; 5.4036e-003
 670.917;   62.92000; 5.4619e-003
 675.317;   63.36000; 5.5124e-003
 679.712;   63.80000; 5.5452e-003
 684.101;   64.24000; 5.5749e-003
 688.482;   64.68000; 5.6052e-003
 692.86;   65.12000; 5.6292e-003
 697.243;   65.56000; 5.6529e-003
 701.625;   66.00000; 5.6730e-003
 706.018;   66.44000; 5.6889e-003
 710.401;   66.88000; 5.7030e-003
 714.78;   67.32000; 5.7080e-003
 719.172;   67.76000; 5.7182e-003
 723.559;   68.20000; 5.7214e-003
 727.938;   68.64000; 5.7210e-003
 732.334;   69.08000; 5.7143e-003
 736.718;   69.52000; 5.7055e-003
 741.101;   69.96000; 5.6932e-003
 745.501;   70.40000; 5.6755e-003
 749.878;   70.84000; 5.6458e-003
 754.262;   71.28000; 5.6197e-003
 758.65;   71.72000; 5.5833e-003
 763.035;   72.16000; 5.5367e-003
 767.419;   72.60000; 5.4922e-003
 771.803;   73.04000; 5.4326e-003
 776.195;   73.48000; 5.3584e-003
 780.578;   73.92000; 5.2832e-003
 784.972;   74.36000; 5.2002e-003
 789.356;   74.80000; 5.1021e-003
 793.76;   75.24000; 4.9968e-003
 798.138;   75.68000; 4.8715e-003
 802.531;   76.12000; 4.7415e-003
 806.924;   76.56000; 4.5943e-003
 811.311;   77.00000; 4.4311e-003
 815.701;   77.44000; 4.2348e-003
 820.095;   77.88000; 4.0424e-003
 824.501;   78.32000; 3.8280e-003
 828.887;   78.76000; 3.5982e-003
 833.277;   79.20000; 3.3485e-003
 837.673;   79.64000; 3.0780e-003
 842.06;   80.08000; 2.7846e-003
 846.44;   80.52000; 2.4756e-003
 850.83;   80.96000; 2.1458e-003
 855.219;   81.40000; 1.8001e-003
 859.613;   81.84000; 1.4319e-003
 864.003;   82.28000; 1.0346e-003
 868.387;   82.72000; 6.2112e-004
 872.776;   83.16000; 1.7408e-004
 877.164;   83.60000;-2.8672e-004
 881.55;   84.04000;-7.7684e-004
 885.946;   84.48000;-1.2888e-003
 890.341;   84.92000;-1.8157e-003
 894.717;   85.36000;-2.3598e-003
 899.105;   85.80000;-2.9191e-003
 903.502;   86.24000;-3.4908e-003
 907.889;   86.68000;-4.0833e-003
 912.292;   87.12000;-4.6886e-003
 916.678;   87.56000;-5.3189e-003
 921.07;   88.00000;-5.9672e-003
 925.45;   88.44000;-6.6289e-003
 929.836;   88.88000;-7.2899e-003
 934.226;   89.32000;-7.9629e-003
 938.61;   89.76000;-8.6511e-003
 942.999;   90.20000;-9.3425e-003
 947.385;   90.64000;-1.0049e-002
 951.782;   91.08000;-1.0766e-002
 956.153;   91.52000;-1.1499e-002
 960.551;   91.96000;-1.2250e-002
 964.94;   92.40000;-1.3025e-002
 969.336;   92.84000;-1.3824e-002
 973.711;   93.28000;-1.4629e-002
 978.122;   93.72000;-1.5455e-002
 982.513;   94.16000;-1.6299e-002
 986.901;   94.60000;-1.7159e-002
 991.301;   95.04000;-1.8038e-002
 995.706;   95.48000;-1.8940e-002
1000.1;   95.92000;-1.9864e-002
1004.5;   96.36000;-2.0796e-002
1008.89;   96.80000;-2.1744e-002
1013.28;   97.24000;-2.2731e-002
1017.67;   97.68000;-2.3735e-002
1022.07;   98.12000;-2.4741e-002
1026.45;   98.56000;-2.5762e-002
1030.85;   99.00000;-2.6816e-002
1035.25;   99.44000;-2.7883e-002
1039.63;   99.88000;-2.8988e-002
1044.02;  100.32;-3.0114e-002
1048.41;  100.76;-3.1257e-002
1052.8;  101.2;-3.2441e-002
1057.2;  101.64;-3.3633e-002
1061.58;  102.08;-3.4874e-002
1065.97;  102.52;-3.6132e-002
1070.37;  102.96;-3.7402e-002
1074.76;  103.4;-3.8695e-002
1079.14;  103.84;-4.0006e-002
1083.55;  104.28;-4.1325e-002
1087.93;  104.72;-4.2670e-002
1092.35;  105.16;-4.4072e-002
1096.73;  105.6;-4.5464e-002
1101.13;  106.04;-4.6913e-002
1105.52;  106.48;-4.8374e-002
1109.92;  106.92;-4.9892e-002
1114.31;  107.36;-5.1390e-002
1118.71;  107.8;-5.2902e-002
1123.1;  108.24;-5.4454e-002
1127.49;  108.68;-5.5983e-002
1131.88;  109.12;-5.7487e-002
1136.28;  109.56;-5.9055e-002
1140.68;  110;-6.0611e-002
1145.07;  110.44;-6.2154e-002
1149.46;  110.88;-6.3674e-002
1153.85;  111.32;-6.5146e-002
1158.25;  111.76;-6.6573e-002
1162.64;  112.2;-6.8087e-002
1167.03;  112.64;-6.9487e-002
1171.43;  113.08;-7.0867e-002
1175.82;  113.52;-7.2249e-002
1180.22;  113.96;-7.3545e-002
1184.62;  114.4;-7.4799e-002
1188.99;  114.84;-7.6023e-002
1193.4;  115.28;-7.7188e-002
1197.81;  115.72;-7.8316e-002
1202.2;  116.16;-7.9405e-002
1206.59;  116.6;-8.0419e-002
1210.98;  117.04;-8.1396e-002
1215.39;  117.48;-8.2315e-002
1219.78;  117.92;-8.3227e-002
1224.18;  118.36;-8.4081e-002
1228.58;  118.8;-8.4903e-002
1232.95;  119.24;-8.5691e-002
1237.36;  119.68;-8.6440e-002
1241.77;  120.12;-8.7164e-002
1246.16;  120.56;-8.7869e-002
1250.56;  121;-8.8554e-002
1254.95;  121.44;-8.9181e-002
1259.34;  121.88;-8.9809e-002
1263.74;  122.32;-9.0457e-002
1268.16;  122.76;-9.1066e-002
1272.54;  123.2;-9.1603e-002
1276.95;  123.64;-9.2180e-002
1281.36;  124.08;-9.2729e-002
1285.75;  124.52;-9.3252e-002
1290.15;  124.96;-9.3757e-002
1294.54;  125.4;-9.4341e-002
1298.94;  125.84;-9.4911e-002
1303.35;  126.28;-9.5499e-002
1307.73;  126.72;-9.6030e-002
1312.14;  127.16;-9.6700e-002
1316.54;  127.6;-9.7245e-002
1320.93;  128.04;-9.7792e-002
1325.35;  128.48;-9.8310e-002
1329.73;  128.92;-9.8763e-002
1334.14;  129.36;-9.9252e-002
1335.35;  129.48;-9.9437e-002

File: 000403_correction_saphire_10_1350_Air-static.txt
#FILE:                 ;000403_correction_saphire_10_1350_Air-static.cle
#FORMAT:               ;NETZSCH5
#IDENTITY:             ;000403
#DECIMAL:              ;POINT
#SEPARATOR:            ;SEMICOLON
#MTYPE:                ;DIL
#MSUBTYPE:             ;
#INSTRUMENT:           ;NETZSCH DIL 402 C
#PROJECT:              ;
#DATE/TIME:            ;28.06.2021 16:18:24
#CORR. FILE:           ;
#LABORATORY:           ;НМ
#OPERATOR:             ;Орлов Н.
#REMARK:               ;
#SAMPLE:               ;corr_10
#SAMPLE LENGTH /mm:    ;3.010
#MATERIAL:             ;стандартный образец
#MEASMODE:             ;Standard Expansion
#PURGE GAS 1:          ;
#FLOW RATE 1 /(ml/min):;0
#CORR. CODE:           ;000
#RANGE:                ;40.0/10.0(K/мин)/1350.0
#SEGMENT:              ;S1/1

##Temp./°C;Time/min;dL/Lo
  40.46600;0.0000e+000; 0.0000e+000
  40.56700;    0.44000;-3.9452e-006
  41.59900;    0.88000;-1.9726e-005
  43.05300;    1.32000;-4.5557e-005
  44.63300;    1.76000;-8.4261e-005
  46.84900;    2.20000;-1.3783e-004
  49.43100;    2.64000;-2.0652e-004
  52.37300;    3.08000;-2.9215e-004
  55.74800;    3.52000;-3.9290e-004
  59.48500;    3.96000;-5.0610e-004
  63.55800;    4.40000;-6.3036e-004
  67.97400;    4.84000;-7.6561e-004
  72.65800;    5.28000;-9.0793e-004
  77.61700;    5.72000;-1.0567e-003
  82.81900;    6.16000;-1.2107e-003
  88.19200;    6.60000;-1.3642e-003
  93.70800;    7.04000;-1.5196e-003
  99.29700;    7.48000;-1.6705e-003
 105.003;    7.92000;-1.8191e-003
 110.732;    8.36000;-1.9593e-003
 116.533;    8.80000;-2.0925e-003
 122.305;    9.24000;-2.2179e-003
 128.108;    9.68000;-2.3306e-003
 133.86;   10.12000;-2.4301e-003
 139.552;   10.56000;-2.5177e-003
 145.095;   11.00000;-2.5922e-003
 150.431;   11.44000;-2.6486e-003
 155.704;   11.88000;-2.6894e-003
 160.878;   12.32000;-2.7137e-003
 166.011;   12.76000;-2.7272e-003
 171.072;   13.20000;-2.7285e-003
 176.097;   13.64000;-2.7210e-003
 181.052;   14.08000;-2.7071e-003
 185.963;   14.52000;-2.6820e-003
 190.83;   14.96000;-2.6520e-003
 195.645;   15.40000;-2.6190e-003
 200.391;   15.84000;-2.5804e-003
 205.116;   16.28000;-2.5367e-003
 209.775;   16.72000;-2.4887e-003
 214.401;   17.16000;-2.4401e-003
 218.985;   17.60000;-2.3876e-003
 223.529;   18.04000;-2.3343e-003
 228.025;   18.48000;-2.2777e-003
 232.501;   18.92000;-2.2223e-003
 236.969;   19.36000;-2.1640e-003
 241.381;   19.80000;-2.1067e-003
 245.799;   20.24000;-2.0488e-003
 250.17;   20.68000;-1.9902e-003
 254.567;   21.12000;-1.9313e-003
 258.928;   21.56000;-1.8764e-003
 263.269;   22.00000;-1.8219e-003
 267.621;   22.44000;-1.7688e-003
 271.959;   22.88000;-1.7147e-003
 276.317;   23.32000;-1.6618e-003
 280.642;   23.76000;-1.6107e-003
 284.979;   24.20000;-1.5596e-003
 289.314;   24.64000;-1.5100e-003
 293.651;   25.08000;-1.4609e-003
 298.008;   25.52000;-1.4138e-003
 302.339;   25.96000;-1.3674e-003
 306.698;   26.40000;-1.3218e-003
 311.052;   26.84000;-1.2782e-003
 315.403;   27.28000;-1.2319e-003
 319.749;   27.72000;-1.1926e-003
 324.122;   28.16000;-1.1517e-003
 328.495;   28.60000;-1.1125e-003
 332.864;   29.04000;-1.0717e-003
 337.243;   29.48000;-1.0328e-003
 341.61;   29.92000;-9.9444e-004
 345.994;   30.36000;-9.5698e-004
 350.375;   30.80000;-9.2072e-004
 354.744;   31.24000;-8.8160e-004
 359.131;   31.68000;-8.4489e-004
 363.518;   32.12000;-8.0963e-004
 367.905;   32.56000;-7.7222e-004
 372.299;   33.00000;-7.3592e-004
 376.669;   33.44000;-7.0071e-004
 381.067;   33.88000;-6.6433e-004
 385.45;   34.32000;-6.2857e-004
 389.854;   34.76000;-5.9286e-004
 394.242;   35.20000;-5.5810e-004
 398.643;   35.64000;-5.2272e-004
 403.023;   36.08000;-4.8742e-004
 407.435;   36.52000;-4.5428e-004
 411.83;   36.96000;-4.2031e-004
 416.219;   37.40000;-3.8538e-004
 420.617;   37.84000;-3.5029e-004
 425.015;   38.28000;-3.1491e-004
 429.4;   38.72000;-2.8177e-004
 433.802;   39.16000;-2.4875e-004
 438.192;   39.60000;-2.1503e-004
 442.585;   40.04000;-1.8069e-004
 446.977;   40.48000;-1.4543e-004
 451.372;   40.92000;-1.1030e-004
 455.761;   41.36000;-7.7658e-005
 460.154;   41.80000;-4.2234e-005
 464.552;   42.24000;-7.8073e-006
 468.928;   42.68000; 2.6703e-005
 473.31;   43.12000; 6.2666e-005
 477.711;   43.56000; 9.9169e-005
 482.105;   44.00000; 1.3243e-004
 486.497;   44.44000; 1.6591e-004
 490.88;   44.88000; 1.9921e-004
 495.277;   45.32000; 2.3189e-004
 499.665;   45.76000; 2.6632e-004
 504.049;   46.20000; 2.9975e-004
 508.451;   46.64000; 3.3580e-004
 512.842;   47.08000; 3.7076e-004
 517.228;   47.52000; 4.0681e-004
 521.629;   47.96000; 4.4066e-004
 526.025;   48.40000; 4.7591e-004
 530.416;   48.84000; 5.1034e-004
 534.804;   49.28000; 5.4439e-004
 539.203;   49.72000; 5.7890e-004
 543.587;   50.16000; 6.1341e-004
 547.989;   50.60000; 6.4776e-004
 552.382;   51.04000; 6.8318e-004
 556.78;   51.48000; 7.1773e-004
 561.171;   51.92000; 7.5278e-004
 565.561;   52.36000; 7.8846e-004
 569.96;   52.80000; 8.2160e-004
 574.368;   53.24000; 8.5793e-004
 578.75;   53.68000; 8.9340e-004
 583.138;   54.12000; 9.2924e-004
 587.532;   54.56000; 9.6400e-004
 591.922;   55.00000; 9.9983e-004
 596.314;   55.44000; 1.0282e-003
 600.707;   55.88000; 1.0369e-003
 605.086;   56.32000; 1.0693e-003
 609.475;   56.76000; 1.1034e-003
 613.869;   57.20000; 1.1390e-003
 618.257;   57.64000; 1.1744e-003
 622.645;   58.08000; 1.2108e-003
 627.027;   58.52000; 1.2461e-003
 631.424;   58.96000; 1.2830e-003
 635.806;   59.40000; 1.3198e-003
 640.191;   59.84000; 1.3569e-003
 644.587;   60.28000; 1.3946e-003
 648.974;   60.72000; 1.4305e-003
 653.36;   61.16000; 1.4677e-003
 657.755;   61.60000; 1.5053e-003
 662.147;   62.04000; 1.5419e-003
 666.534;   62.48000; 1.5793e-003
 670.926;   62.92000; 1.6166e-003
 675.308;   63.36000; 1.6539e-003
 679.705;   63.80000; 1.6916e-003
 684.086;   64.24000; 1.7300e-003
 688.474;   64.68000; 1.7682e-003
 692.857;   65.12000; 1.8057e-003
 697.255;   65.56000; 1.8441e-003
 701.628;   66.00000; 1.8821e-003
 706.019;   66.44000; 1.9200e-003
 710.407;   66.88000; 1.9577e-003
 714.789;   67.32000; 1.9939e-003
 719.182;   67.76000; 2.0322e-003
 723.57;   68.20000; 2.0710e-003
 727.962;   68.64000; 2.1098e-003
 732.355;   69.08000; 2.1479e-003
 736.736;   69.52000; 2.1864e-003
 741.126;   69.96000; 2.2257e-003
 745.507;   70.40000; 2.2628e-003
 749.895;   70.84000; 2.3027e-003
 754.274;   71.28000; 2.3428e-003
 758.657;   71.72000; 2.3825e-003
 763.051;   72.16000; 2.4230e-003
 767.44;   72.60000; 2.4613e-003
 771.826;   73.04000; 2.5006e-003
 776.214;   73.48000; 2.5412e-003
 780.596;   73.92000; 2.5804e-003
 784.977;   74.36000; 2.6213e-003
 789.369;   74.80000; 2.6618e-003
 793.756;   75.24000; 2.7015e-003
 798.159;   75.68000; 2.7411e-003
 802.55;   76.12000; 2.7829e-003
 806.938;   76.56000; 2.8228e-003
 811.327;   77.00000; 2.8596e-003
 815.73;   77.44000; 2.9027e-003
 820.134;   77.88000; 2.9409e-003
 824.516;   78.32000; 2.9825e-003
 828.9;   78.76000; 3.0212e-003
 833.296;   79.20000; 3.0625e-003
 837.688;   79.64000; 3.1036e-003
 842.068;   80.08000; 3.1441e-003
 846.453;   80.52000; 3.1829e-003
 850.838;   80.96000; 3.2285e-003
 855.227;   81.40000; 3.2672e-003
 859.622;   81.84000; 3.3094e-003
 864;   82.28000; 3.3493e-003
 868.39;   82.72000; 3.3900e-003
 872.779;   83.16000; 3.4322e-003
 877.17;   83.60000; 3.4727e-003
 881.556;   84.04000; 3.5114e-003
 885.957;   84.48000; 3.5511e-003
 890.345;   84.92000; 3.5931e-003
 894.726;   85.36000; 3.6329e-003
 899.125;   85.80000; 3.6752e-003
 903.51;   86.24000; 3.7148e-003
 907.892;   86.68000; 3.7572e-003
 912.287;   87.12000; 3.7968e-003
 916.69;   87.56000; 3.8376e-003
 921.085;   88.00000; 3.8797e-003
 925.454;   88.44000; 3.9183e-003
 929.848;   88.88000; 3.9637e-003
 934.238;   89.32000; 4.0042e-003
 938.621;   89.76000; 4.0443e-003
 943.01;   90.20000; 4.0893e-003
 947.396;   90.64000; 4.1321e-003
 951.788;   91.08000; 4.1706e-003
 956.161;   91.52000; 4.2132e-003
 960.573;   91.96000; 4.2544e-003
 964.954;   92.40000; 4.2926e-003
 969.346;   92.84000; 4.3351e-003
 973.741;   93.28000; 4.3782e-003
 978.134;   93.72000; 4.4206e-003
 982.529;   94.16000; 4.4551e-003
 986.923;   94.60000; 4.5017e-003
 991.309;   95.04000; 4.5413e-003
 995.699;   95.48000; 4.5822e-003
1000.1;   95.92000; 4.6203e-003
1004.51;   96.36000; 4.6616e-003
1008.9;   96.80000; 4.7044e-003
1013.28;   97.24000; 4.7459e-003
1017.68;   97.68000; 4.7876e-003
1022.08;   98.12000; 4.8289e-003
1026.48;   98.56000; 4.8689e-003
1030.87;   99.00000; 4.9103e-003
1035.27;   99.44000; 4.9510e-003
1039.65;   99.88000; 4.9924e-003
1044.04;  100.32; 5.0365e-003
1048.44;  100.76; 5.0756e-003
1052.82;  101.2; 5.1200e-003
1057.2;  101.64; 5.1605e-003
1061.6;  102.08; 5.2032e-003
1065.99;  102.52; 5.2444e-003
1070.38;  102.96; 5.2849e-003
1074.77;  103.4; 5.3287e-003
1079.16;  103.84; 5.3670e-003
1083.55;  104.28; 5.4081e-003
1087.95;  104.72; 5.4454e-003
1092.34;  105.16; 5.4875e-003
1096.73;  105.6; 5.5259e-003
1101.12;  106.04; 5.5635e-003
1105.53;  106.48; 5.6060e-003
1109.93;  106.92; 5.6454e-003
1114.31;  107.36; 5.6834e-003
1118.71;  107.8; 5.7244e-003
1123.11;  108.24; 5.7654e-003
1127.51;  108.68; 5.8015e-003
1131.89;  109.12; 5.8415e-003
1136.27;  109.56; 5.8754e-003
1140.68;  110; 5.9179e-003
1145.07;  110.44; 5.9549e-003
1149.46;  110.88; 5.9912e-003
1153.85;  111.32; 6.0310e-003
1158.26;  111.76; 6.0654e-003
1162.64;  112.2; 6.1012e-003
1167.03;  112.64; 6.1390e-003
1171.44;  113.08; 6.1748e-003
1175.82;  113.52; 6.2067e-003
1180.22;  113.96; 6.2409e-003
1184.62;  114.4; 6.2715e-003
1189;  114.84; 6.3015e-003
1193.41;  115.28; 6.3353e-003
1197.8;  115.72; 6.3660e-003
1202.2;  116.16; 6.3911e-003
1206.59;  116.6; 6.4219e-003
1210.98;  117.04; 6.4494e-003
1215.39;  117.48; 6.4750e-003
1219.76;  117.92; 6.5005e-003
1224.16;  118.36; 6.5221e-003
1228.56;  118.8; 6.5465e-003
1232.95;  119.24; 6.5647e-003
1237.36;  119.68; 6.5920e-003
1241.77;  120.12; 6.6097e-003
1246.15;  120.56; 6.6275e-003
1250.54;  121; 6.6400e-003
1254.93;  121.44; 6.6591e-003
1259.34;  121.88; 6.6729e-003
1263.74;  122.32; 6.6848e-003
1268.16;  122.76; 6.7008e-003
1272.54;  123.2; 6.7130e-003
1276.93;  123.64; 6.7189e-003
1281.33;  124.08; 6.7316e-003
1285.73;  124.52; 6.7367e-003
1290.13;  124.96; 6.7430e-003
1294.53;  125.4; 6.7469e-003
1298.93;  125.84; 6.7457e-003
1303.32;  126.28; 6.7466e-003
1307.72;  126.72; 6.7444e-003
1312.14;  127.16; 6.7394e-003
1316.54;  127.6; 6.7311e-003
1320.93;  128.04; 6.7221e-003
1325.34;  128.48; 6.7093e-003
1329.73;  128.92; 6.6948e-003
1334.12;  129.36; 6.6778e-003
1338.54;  129.8; 6.6684e-003
1342.93;  130.24; 6.6514e-003
1347.33;  130.68; 6.6315e-003
1350.44;  130.99; 6.6188e-003