Folder: TestRepo

Note: out_1.txt
31652.0000005 700.0180105 659.4375005 0.0078605 0.0031665 0.6467465 64.6745675 39566.2500005
34052.0000005 750.0109905 709.4375005 0.0066715 0.0015465 0.6498905 64.9889865 42566.2500005
36453.0000005 800.0189805 759.4583105 0.0034685 -0.0021185 0.6570755 65.7074935 45567.4986005
38853.0000005 850.0100105 809.4583105 -0.0025805 -0.0086445 0.6701375 67.0137125 48567.4986005
41254.0000005 900.0130005 859.4791905 -0.0122375 -0.0188055 0.6911735 69.1173195 51568.7514005
43654.0000005 950.0120205 909.4791905 -0.0260555 -0.0331495 0.7223945 72.2394155 54568.7514005
46054.0000005 1000.0170305 959.4791905 -0.0422155 -0.0498525 0.7611645 76.1163595 57568.7514005
48454.0000005 1050.0069605 1009.4791905 -0.0590905 -0.0672765 0.8046235 80.4623295 60568.7514005
50854.0000005 1100.0009805 1059.4791305 -0.0740035 -0.0827425 0.8460165 84.6015895 63568.7478005
53254.0000005 1150.0090305 1109.4791305 -0.0836915 -0.0929935 0.8750255 87.5025495 66568.7478005
55655.0000005 1200.0150105 1159.5000005 -0.0881065 -0.0979545 0.8895425 88.9542225 69570.0000005
58055.0000005 1250.0169705 1209.5000005 -0.0889645 -0.0991785 0.8931735 89.3172585 72570.0000005
60455.0000005 1300.0080605 1259.5000005 -0.0879905 -0.0984355 0.8909665 89.0966145 75570.0000005

Note: out_2.txt
23271.0000005 700.0109905 329.6866805 0.0100805 0.0056115 0.6609095 66.0908765 19781.2008005
25036.0000005 750.0029905 354.6908305 0.0094915 0.0046085 0.6628905 66.2889705 21281.4498005
26802.0000005 800.0210005 379.7091705 0.0074695 0.0021555 0.6677705 66.7769945 22782.5502005
28567.0000005 850.0230105 404.7133505 0.0031215 -0.0026535 0.6774745 67.7473705 24282.8010005
30332.0000005 900.0009805 429.7175005 -0.0048255 -0.0110575 0.6948935 69.4893165 25783.0500005
32098.0000005 950.0170305 454.7358405 -0.0163295 -0.0230425 0.7207815 72.0781475 27284.1504005
33862.0000005 1000.0040305 479.7258305 -0.0301615 -0.0373535 0.7534085 75.3407795 28783.5498005
35628.0000005 1050.0140405 504.7441705 -0.0463495 -0.0540605 0.7940375 79.4036595 30284.6502005
37393.0000005 1100.0109905 529.7483505 -0.0625995 -0.0708485 0.8378595 83.7858825 31784.9010005
39158.0000005 1150.0169705 554.7525005 -0.0753525 -0.0841455 0.8748845 87.4884455 33285.1500005
40923.0000005 1200.0119605 579.7566505 -0.0820965 -0.0914375 0.8961215 89.6121135 34785.3990005
42687.0000005 1250.0019505 604.7466405 -0.0849935 -0.0948795 0.9063835 90.6383085 36284.7984005
44452.0000005 1300.0090305 629.7508505 -0.0878275 -0.0981625 0.9163175 91.6317195 37785.0510005

Note: out_5.txt
13181.0000005 700.0040305 131.8200105 0.0078505 0.0049265 0.6756825 67.5682455 7909.2006005
14183.0000005 750.0520005 141.8400005 0.0080435 0.0047605 0.6760185 67.6017605 8510.4000005
15184.0000005 800.0440105 151.8500105 0.0070425 0.0034275 0.6787175 67.8716975 9111.0006005
16184.0000005 850.0040305 161.8500105 0.0036135 -0.0003095 0.6863535 68.6352805 9711.0006005
17186.0000005 900.0369905 171.8700005 -0.0024355 -0.0067245 0.6997385 69.9737775 10312.2000005
18187.0000005 950.0269805 181.8800005 -0.0114975 -0.0161995 0.7201525 72.0151985 10912.8000005
19187.0000005 1000.0130005 191.8800005 -0.0237585 -0.0288995 0.7487755 74.8775345 11512.8000005
20188.0000005 1050.0190405 201.8900005 -0.0400655 -0.0456035 0.7887855 78.8785455 12113.4000005
21189.0000005 1100.0429705 211.8999905 -0.0580105 -0.0639565 0.8360985 83.6097975 12713.9994005
22189.0000005 1150.0129405 221.8999905 -0.0756675 -0.0819865 0.8863355 88.6335335 13313.9994005
23189.0000005 1200.0080605 231.8999905 -0.0878845 -0.0945055 0.9236065 92.3606435 13913.9994005
24190.0000005 1250.0229505 241.9100005 -0.0939165 -0.1007405 0.9429525 94.2951675 14514.6000005
25189.0000005 1300.0050005 251.8999905 -0.0948965 -0.1017175 0.9460325 94.6032085 15113.9994005

Note: out_10.txt
6583.0000005 700.0349705 65.8400005 0.0056645 0.0037955 0.6650055 66.5005465 3950.4000005
7085.0000005 750.0809905 70.8600005 0.0056495 0.0033435 0.6659055 66.5904805 4251.6000005
7586.0000005 800.0460205 75.8700005 0.0048195 0.0020595 0.6684695 66.8469285 4552.2000005
8087.0000005 850.0380205 80.8800005 0.0022085 -0.0010115 0.6746515 67.4650875 4852.8000005
8588.0000005 900.0120205 85.8900005 -0.0030355 -0.0067175 0.6863445 68.6344155 5153.4000005
9090.0000005 950.0809905 90.9100005 -0.0104845 -0.0146415 0.7030355 70.3034585 5454.6000005
9590.0000005 1000.0040305 95.9100005 -0.0198435 -0.0244645 0.7244875 72.4487085 5754.6000005
10091.0000005 1050.0009805 100.9200005 -0.0316915 -0.0367825 0.7526405 75.2639795 6055.2000005
10592.0000005 1100.0279505 105.9300005 -0.0465505 -0.0521075 0.7897375 78.9736945 6355.8000005
11093.0000005 1150.0649405 110.9400005 -0.0638885 -0.0698855 0.8358945 83.5894155 6656.4000005
11594.0000005 1200.1009505 115.9500005 -0.0788785 -0.0852585 0.8787485 87.8748355 6957.0000005
12094.0000005 1250.0629905 120.9500005 -0.0884205 -0.0950595 0.9076115 90.7610655 7257.0000005
12594.0000005 1300.0389405 125.9500005 -0.0950275 -0.1017765 0.9281255 92.8125185 7557.0000005

Note: out_20.txt
3279.0000005 700.1140105 32.8000005 0.0088545 0.0083465 0.6318255 63.1824825 1968.0000005
3531.0000005 750.1160305 35.3200005 0.0099145 0.0088705 0.6308415 63.0841155 2119.2000005
3783.0000005 800.1380005 37.8400005 0.0103405 0.0087585 0.6310515 63.1051495 2270.4000005
4035.0000005 850.2000105 40.3600005 0.0094625 0.0073355 0.6337295 63.3729045 2421.6000005
4286.0000005 900.0640305 42.8700005 0.0067775 0.0041055 0.6398655 63.9864665 2572.2000005
4538.0000005 950.1250005 45.3900005 0.0025355 -0.0006825 0.6491045 64.9104145 2723.4000005
4789.0000005 1000.0269805 47.9000005 -0.0039905 -0.0077315 0.6630365 66.3035995 2874.0000005
5041.0000005 1050.1440405 50.4200005 -0.0124575 -0.0167045 0.6813555 68.1355065 3025.2000005
5292.0000005 1100.0939905 52.9300005 -0.0239675 -0.0286805 0.7068685 70.6868305 3175.8000005
5543.0000005 1150.0870405 55.4400005 -0.0380965 -0.0433015 0.7397755 73.9775045 3326.4000005
5794.0000005 1200.0970505 57.9500005 -0.0542555 -0.0599395 0.7797535 77.9753105 3477.0000005
6045.0000005 1250.1540505 60.4600005 -0.0677755 -0.0738885 0.8155215 81.5521435 3627.6000005
6295.0000005 1300.0730005 62.9600005 -0.0765485 -0.0830155 0.8401155 84.0115105 3777.6000005

Note: README.md
# TestRepo
This is my first GitHub repository

File: 000391_correction_saphire_20_1450_Air-static.txt
#FILE:                 ;000391_correction_saphire_20_1450_Air-static.cle
#FORMAT:               ;NETZSCH5
#IDENTITY:             ;000391
#DECIMAL:              ;POINT
#SEPARATOR:            ;SEMICOLON
#MTYPE:                ;DIL
#MSUBTYPE:             ;
#INSTRUMENT:           ;NETZSCH DIL 402 C
#PROJECT:              ;
#DATE/TIME:            ;21.06.2021 12:37:00
#CORR. FILE:           ;
#LABORATORY:           ;НМ
#OPERATOR:             ;Орлов Н.
#REMARK:               ;
#SAMPLE:               ;corr_20
#SAMPLE LENGTH /mm:    ;3.010
#MATERIAL:             ;стандартный образец
#MEASMODE:             ;Standard Expansion
#PURGE GAS 1:          ;
#FLOW RATE 1 /(ml/min):;0
#CORR. CODE:           ;000
#RANGE:                ;40.0/20.0(K/мин)/1450.0
#SEGMENT:              ;S1/1

##Temp./°C;Time/min;dL/Lo
  40.49400;0.0000e+000; 0.0000e+000
  40.54900;    0.24000; 3.7375e-007
  41.22000;    0.48000;-6.9352e-006
  42.72100;    0.72000;-2.9817e-005
  44.32600;    0.96000;-5.8679e-005
  45.96000;    1.20000;-9.4103e-005
  47.92700;    1.44000;-1.3804e-004
  50.39700;    1.68000;-1.9107e-004
  53.15700;    1.92000;-2.5756e-004
  56.07900;    2.16000;-3.3393e-004
  59.32500;    2.40000;-4.1753e-004
  62.89400;    2.64000;-5.1130e-004
  66.72900;    2.88000;-6.1503e-004
  70.78800;    3.12000;-7.2483e-004
  75.13400;    3.36000;-8.4826e-004
  79.72800;    3.60000;-9.7575e-004
  84.53700;    3.84000;-1.1121e-003
  89.53800;    4.08000;-1.2551e-003
  94.73000;    4.32000;-1.4047e-003
 100.07;    4.56000;-1.5589e-003
 105.548;    4.80000;-1.7199e-003
 111.188;    5.04000;-1.8836e-003
 116.936;    5.28000;-2.0484e-003
 122.8;    5.52000;-2.2154e-003
 128.77;    5.76000;-2.3873e-003
 134.759;    6.00000;-2.5552e-003
 140.212;    6.24000;-2.7196e-003
 145.486;    6.48000;-2.8804e-003
 150.955;    6.72000;-3.0308e-003
 156.418;    6.96000;-3.1747e-003
 161.856;    7.20000;-3.3129e-003
 167.29;    7.44000;-3.4433e-003
 172.718;    7.68000;-3.5661e-003
 178.147;    7.92000;-3.6795e-003
 183.595;    8.16000;-3.7841e-003
 189.007;    8.40000;-3.8812e-003
 194.418;    8.64000;-3.9700e-003
 199.808;    8.88000;-4.0498e-003
 205.204;    9.12000;-4.1217e-003
 210.588;    9.36000;-4.1856e-003
 215.957;    9.60000;-4.2397e-003
 221.354;    9.84000;-4.2880e-003
 226.696;   10.08000;-4.3280e-003
 232.064;   10.32000;-4.3593e-003
 237.422;   10.56000;-4.3859e-003
 242.78;   10.80000;-4.4039e-003
 248.125;   11.04000;-4.4147e-003
 253.455;   11.28000;-4.4189e-003
 258.782;   11.52000;-4.4180e-003
 264.111;   11.76000;-4.4113e-003
 269.426;   12.00000;-4.4011e-003
 274.732;   12.24000;-4.3845e-003
 280.024;   12.48000;-4.3640e-003
 285.308;   12.72000;-4.3424e-003
 290.586;   12.96000;-4.3123e-003
 295.876;   13.20000;-4.2787e-003
 301.139;   13.44000;-4.2405e-003
 306.415;   13.68000;-4.2005e-003
 311.671;   13.92000;-4.1588e-003
 316.936;   14.16000;-4.1122e-003
 322.17;   14.40000;-4.0640e-003
 327.413;   14.64000;-4.0127e-003
 332.634;   14.88000;-3.9607e-003
 337.843;   15.12000;-3.9037e-003
 343.061;   15.36000;-3.8474e-003
 348.282;   15.60000;-3.7898e-003
 353.478;   15.84000;-3.7299e-003
 358.679;   16.08000;-3.6699e-003
 363.861;   16.32000;-3.6093e-003
 369.056;   16.56000;-3.5464e-003
 374.227;   16.80000;-3.4830e-003
 379.391;   17.04000;-3.4195e-003
 384.552;   17.28000;-3.3565e-003
 389.7;   17.52000;-3.2905e-003
 394.847;   17.76000;-3.2257e-003
 399.99;   18.00000;-3.1613e-003
 405.119;   18.24000;-3.0947e-003
 410.222;   18.48000;-3.0304e-003
 415.343;   18.72000;-2.9661e-003
 420.441;   18.96000;-2.8984e-003
 425.529;   19.20000;-2.8329e-003
 430.588;   19.44000;-2.7667e-003
 435.653;   19.68000;-2.7004e-003
 440.71;   19.92000;-2.6376e-003
 445.744;   20.16000;-2.5682e-003
 450.769;   20.40000;-2.5027e-003
 455.765;   20.64000;-2.4363e-003
 460.757;   20.88000;-2.3702e-003
 465.745;   21.12000;-2.3049e-003
 470.715;   21.36000;-2.2380e-003
 475.68;   21.60000;-2.1741e-003
 480.609;   21.84000;-2.1091e-003
 485.541;   22.08000;-2.0459e-003
 490.455;   22.32000;-1.9795e-003
 495.365;   22.56000;-1.9131e-003
 500.287;   22.80000;-1.8522e-003
 505.162;   23.04000;-1.7843e-003
 510.031;   23.28000;-1.7222e-003
 514.913;   23.52000;-1.6565e-003
 519.786;   23.76000;-1.5944e-003
 524.639;   24.00000;-1.5333e-003
 529.481;   24.24000;-1.4706e-003
 534.324;   24.48000;-1.4089e-003
 539.154;   24.72000;-1.3457e-003
 543.979;   24.96000;-1.2843e-003
 548.803;   25.20000;-1.2226e-003
 553.631;   25.44000;-1.1633e-003
 558.42;   25.68000;-1.1026e-003
 563.249;   25.92000;-1.0418e-003
 568.051;   26.16000;-9.8410e-004
 572.846;   26.40000;-9.2417e-004
 577.643;   26.64000;-8.6321e-004
 582.43;   26.88000;-8.0606e-004
 587.227;   27.12000;-7.4880e-004
 592.002;   27.36000;-6.9273e-004
 596.801;   27.60000;-6.3713e-004
 601.573;   27.84000;-5.8052e-004
 606.348;   28.08000;-5.2226e-004
 611.13;   28.32000;-4.6574e-004
 615.901;   28.56000;-4.1283e-004
 620.665;   28.80000;-3.5768e-004
 625.443;   29.04000;-3.0386e-004
 630.223;   29.28000;-2.4892e-004
 634.982;   29.52000;-1.9618e-004
 639.751;   29.76000;-1.4298e-004
 644.517;   30.00000;-9.1777e-005
 649.276;   30.24000;-3.9743e-005
 654.041;   30.48000; 1.1711e-005
 658.804;   30.72000; 6.4410e-005
 663.561;   30.96000; 1.1366e-004
 668.328;   31.20000; 1.6798e-004
 673.082;   31.44000; 2.1794e-004
 677.858;   31.68000; 2.6873e-004
 682.608;   31.92000; 3.1848e-004
 687.387;   32.16000; 3.7101e-004
 692.136;   32.40000; 4.2147e-004
 696.922;   32.64000; 4.7176e-004
 701.664;   32.88000; 5.2247e-004
 706.416;   33.12000; 5.7558e-004
 711.182;   33.36000; 6.2716e-004
 715.933;   33.60000; 6.7849e-004
 720.704;   33.84000; 7.3218e-004
 725.477;   34.08000; 7.8019e-004
 730.219;   34.32000; 8.3310e-004
 734.991;   34.56000; 8.8372e-004
 739.769;   34.80000; 9.3468e-004
 744.516;   35.04000; 9.8397e-004
 749.294;   35.28000; 1.0332e-003
 754.049;   35.52000; 1.0880e-003
 758.812;   35.76000; 1.1348e-003
 763.574;   36.00000; 1.1904e-003
 768.335;   36.24000; 1.2370e-003
 773.092;   36.48000; 1.2902e-003
 777.85;   36.72000; 1.3403e-003
 782.62;   36.96000; 1.3904e-003
 787.406;   37.20000; 1.4442e-003
 792.16;   37.44000; 1.4933e-003
 796.929;   37.68000; 1.5446e-003
 801.689;   37.92000; 1.5996e-003
 806.462;   38.16000; 1.6464e-003
 811.252;   38.40000; 1.7011e-003
 816.015;   38.64000; 1.7529e-003
 820.79;   38.88000; 1.8046e-003
 825.543;   39.12000; 1.8579e-003
 830.316;   39.36000; 1.9096e-003
 835.076;   39.60000; 1.9608e-003
 839.855;   39.84000; 2.0156e-003
 844.63;   40.08000; 2.0664e-003
 849.404;   40.32000; 2.1147e-003
 854.155;   40.56000; 2.1718e-003
 858.928;   40.80000; 2.2226e-003
 863.7;   41.04000; 2.2715e-003
 868.453;   41.28000; 2.3235e-003
 873.227;   41.52000; 2.3743e-003
 877.995;   41.76000; 2.4299e-003
 882.76;   42.00000; 2.4794e-003
 887.524;   42.24000; 2.5333e-003
 892.305;   42.48000; 2.5843e-003
 897.074;   42.72000; 2.6367e-003
 901.844;   42.96000; 2.6928e-003
 906.608;   43.20000; 2.7424e-003
 911.386;   43.44000; 2.7937e-003
 916.162;   43.68000; 2.8464e-003
 920.915;   43.92000; 2.8996e-003
 925.699;   44.16000; 2.9467e-003
 930.466;   44.40000; 2.9982e-003
 935.216;   44.64000; 3.0466e-003
 939.986;   44.88000; 3.1056e-003
 944.761;   45.12000; 3.1534e-003
 949.517;   45.36000; 3.2101e-003
 954.278;   45.60000; 3.2593e-003
 959.044;   45.84000; 3.3110e-003
 963.812;   46.08000; 3.3635e-003
 968.587;   46.32000; 3.4143e-003
 973.354;   46.56000; 3.4603e-003
 978.128;   46.80000; 3.5151e-003
 982.902;   47.04000; 3.5639e-003
 987.676;   47.28000; 3.6113e-003
 992.441;   47.52000; 3.6627e-003
 997.226;   47.76000; 3.7138e-003
1001.98;   48.00000; 3.7591e-003
1006.75;   48.24000; 3.8129e-003
1011.54;   48.48000; 3.8580e-003
1016.31;   48.72000; 3.9093e-003
1021.07;   48.96000; 3.9574e-003
1025.87;   49.20000; 4.0060e-003
1030.63;   49.44000; 4.0519e-003
1035.41;   49.68000; 4.1014e-003
1040.18;   49.92000; 4.1475e-003
1044.95;   50.16000; 4.1944e-003
1049.72;   50.40000; 4.2423e-003
1054.49;   50.64000; 4.2869e-003
1059.27;   50.88000; 4.3310e-003
1064.05;   51.12000; 4.3710e-003
1068.82;   51.36000; 4.4216e-003
1073.59;   51.60000; 4.4675e-003
1078.38;   51.84000; 4.5115e-003
1083.14;   52.08000; 4.5573e-003
1087.93;   52.32000; 4.6018e-003
1092.7;   52.56000; 4.6449e-003
1097.49;   52.80000; 4.6897e-003
1102.25;   53.04000; 4.7291e-003
1107.04;   53.28000; 4.7782e-003
1111.81;   53.52000; 4.8213e-003
1116.6;   53.76000; 4.8684e-003
1121.38;   54.00000; 4.9151e-003
1126.17;   54.24000; 4.9602e-003
1130.94;   54.48000; 5.0071e-003
1135.71;   54.72000; 5.0533e-003
1140.48;   54.96000; 5.1037e-003
1145.26;   55.20000; 5.1548e-003
1150.04;   55.44000; 5.2049e-003
1154.82;   55.68000; 5.2499e-003
1159.63;   55.92000; 5.2971e-003
1164.38;   56.16000; 5.3463e-003
1169.17;   56.40000; 5.3935e-003
1173.96;   56.64000; 5.4403e-003
1178.74;   56.88000; 5.4882e-003
1183.52;   57.12000; 5.5296e-003
1188.32;   57.36000; 5.5757e-003
1193.1;   57.60000; 5.6196e-003
1197.88;   57.84000; 5.6600e-003
1202.67;   58.08000; 5.7001e-003
1207.45;   58.32000; 5.7436e-003
1212.23;   58.56000; 5.7837e-003
1217.02;   58.80000; 5.8270e-003
1221.81;   59.04000; 5.8710e-003
1226.59;   59.28000; 5.9136e-003
1231.39;   59.52000; 5.9515e-003
1236.17;   59.76000; 5.9969e-003
1240.96;   60.00000; 6.0364e-003
1245.74;   60.24000; 6.0744e-003
1250.54;   60.48000; 6.1126e-003
1255.32;   60.72000; 6.1532e-003
1260.11;   60.96000; 6.1896e-003
1264.92;   61.20000; 6.2213e-003
1269.71;   61.44000; 6.2606e-003
1274.49;   61.68000; 6.2947e-003
1279.29;   61.92000; 6.3285e-003
1284.08;   62.16000; 6.3678e-003
1288.88;   62.40000; 6.3948e-003
1293.67;   62.64000; 6.4306e-003
1298.48;   62.88000; 6.4570e-003
1303.25;   63.12000; 6.4914e-003
1308.04;   63.36000; 6.5145e-003
1312.84;   63.60000; 6.5471e-003
1317.64;   63.84000; 6.5705e-003
1322.44;   64.08000; 6.5901e-003
1327.22;   64.32000; 6.6134e-003
1332.03;   64.56000; 6.6276e-003
1336.81;   64.80000; 6.6434e-003
1341.58;   65.04000; 6.6500e-003
1346.38;   65.28000; 6.6683e-003
1351.18;   65.52000; 6.6753e-003
1355.97;   65.76000; 6.6790e-003
1360.76;   66.00000; 6.6729e-003
1365.56;   66.24000; 6.6744e-003
1370.35;   66.48000; 6.6694e-003
1375.15;   66.72000; 6.6521e-003
1379.94;   66.96000; 6.6438e-003
1384.75;   67.20000; 6.6261e-003
1389.56;   67.44000; 6.6004e-003
1394.34;   67.68000; 6.5714e-003
1399.15;   67.92000; 6.5344e-003
1403.94;   68.16000; 6.4956e-003
1408.73;   68.40000; 6.4528e-003
1413.54;   68.64000; 6.3978e-003
1418.34;   68.88000; 6.3423e-003
1423.13;   69.12000; 6.2891e-003
1427.93;   69.36000; 6.2203e-003
1432.74;   69.60000; 6.1464e-003
1437.55;   69.84000; 6.0708e-003
1442.34;   70.08000; 5.9854e-003
1447.15;   70.32000; 5.8959e-003
1450.35;   70.48000; 5.8314e-003