Folder: TestRepo (part 4)

File: 000398_K06_2_1350_Air-static.txt
#FILE:                 ;000398_K06_2_1350_Air-static.sle
#FORMAT:               ;NETZSCH5
#IDENTITY:             ;000398
#DECIMAL:              ;POINT
#SEPARATOR:            ;SEMICOLON
#MTYPE:                ;DIL
#MSUBTYPE:             ;
#INSTRUMENT:           ;NETZSCH DIL 402 C
#PROJECT:              ;
#DATE/TIME:            ;24.06.2021 19:46:38
#CORR. FILE:           ;
#LABORATORY:           ;НМ
#OPERATOR:             ;Орлов Н.
#REMARK:               ;
#SAMPLE:               ;K06_2
#SAMPLE LENGTH /mm:    ;2.780
#MATERIAL:             ;стандартный образец
#MEASMODE:             ;Standard Expansion
#PURGE GAS 1:          ;
#FLOW RATE 1 /(ml/min):;0
#CORR. CODE:           ;000
#RANGE:                ;40.0/2.0(K/мин)/1350.0
#SEGMENT:              ;S1/1

##Temp./°C;Time/min;dL/Lo
  41.17500;0.0000e+000; 0.0000e+000
  42.12700;    2.19583;-9.8921e-006
  44.64100;    4.39167;-9.0378e-005
  48.53000;    6.58750;-2.1897e-004
  53.42100;    8.78333;-3.6016e-004
  58.88000;   10.97917;-4.8246e-004
  64.47700;   13.17500;-5.6205e-004
  69.95300;   15.37083;-5.9577e-004
  75.15700;   17.56667;-5.8903e-004
  80.06000;   19.76250;-5.4541e-004
  84.66500;   21.95833;-4.7347e-004
  89.06200;   24.15417;-3.9344e-004
  93.33600;   26.35000;-3.0980e-004
  97.55500;   28.54583;-2.2887e-004
 101.792;   30.74167;-1.5333e-004
 106.085;   32.93750;-8.4982e-005
 110.419;   35.13334;-1.7086e-005
 114.814;   37.32917; 4.9460e-005
 119.238;   39.52500; 1.1601e-004
 123.696;   41.72083; 1.8345e-004
 128.137;   43.91667; 2.5180e-004
 132.581;   46.11250; 3.2599e-004
 136.998;   48.30833; 4.0288e-004
 141.413;   50.50417; 4.7482e-004
 145.813;   52.70000; 5.4946e-004
 150.207;   54.89583; 6.1781e-004
 154.597;   57.09167; 6.7986e-004
 159.008;   59.28750; 7.3966e-004
 163.405;   61.48333; 7.9451e-004
 167.817;   63.67916; 8.5342e-004
 172.236;   65.87500; 9.1592e-004
 176.646;   68.07083; 9.8336e-004
 181.045;   70.26667; 1.0549e-003
 185.44;   72.46250; 1.1290e-003
 189.847;   74.65833; 1.2091e-003
 194.244;   76.85416; 1.2833e-003
 198.634;   79.05000; 1.3624e-003
 203.031;   81.24583; 1.4406e-003
 207.437;   83.44167; 1.5189e-003
 211.837;   85.63750; 1.5881e-003
 216.251;   87.83334; 1.6655e-003
 220.658;   90.02917; 1.7455e-003
 225.068;   92.22500; 1.8116e-003
 229.475;   94.42083; 1.8799e-003
 233.882;   96.61667; 1.9442e-003
 238.282;   98.81250; 2.0117e-003
 242.677;  101.008; 2.0841e-003
 247.041;  103.204; 2.1592e-003
 251.381;  105.4; 2.2325e-003
 255.696;  107.596; 2.3107e-003
 260.044;  109.792; 2.3813e-003
 264.428;  111.987; 2.4649e-003
 268.84;  114.183; 2.5432e-003
 273.272;  116.379; 2.6268e-003
 277.723;  118.575; 2.7149e-003
 282.165;  120.771; 2.8058e-003
 286.579;  122.967; 2.8979e-003
 290.966;  125.162; 2.9861e-003
 295.354;  127.358; 3.0782e-003
 299.744;  129.554; 3.1637e-003
 304.141;  131.75; 3.2536e-003
 308.53;  133.946; 3.3476e-003
 312.925;  136.142; 3.4366e-003
 317.321;  138.337; 3.5220e-003
 321.709;  140.533; 3.6187e-003
 326.114;  142.729; 3.7091e-003
 330.497;  144.925; 3.7995e-003
 334.885;  147.121; 3.8876e-003
 339.285;  149.317; 3.9775e-003
 343.682;  151.512; 4.0679e-003
 348.073;  153.708; 4.1547e-003
 352.457;  155.904; 4.2424e-003
 356.852;  158.1; 4.3255e-003
 361.251;  160.296; 4.4137e-003
 365.641;  162.492; 4.4982e-003
 370.033;  164.688; 4.5841e-003
 374.428;  166.883; 4.6655e-003
 378.823;  169.079; 4.7563e-003
 383.215;  171.275; 4.8390e-003
 387.615;  173.471; 4.9276e-003
 392.014;  175.667; 5.0121e-003
 396.402;  177.863; 5.1084e-003
 400.793;  180.058; 5.1983e-003
 405.193;  182.254; 5.2891e-003
 409.584;  184.45; 5.3808e-003
 413.971;  186.646; 5.4712e-003
 418.371;  188.842; 5.5634e-003
 422.751;  191.038; 5.6470e-003
 427.148;  193.233; 5.7451e-003
 431.532;  195.429; 5.8350e-003
 435.931;  197.625; 5.9308e-003
 440.32;  199.821; 6.0198e-003
 444.717;  202.017; 6.1165e-003
 449.11;  204.212; 6.2086e-003
 453.5;  206.408; 6.3026e-003
 457.894;  208.604; 6.3970e-003
 462.288;  210.8; 6.4870e-003
 466.671;  212.996; 6.5823e-003
 471.071;  215.192; 6.6808e-003
 475.46;  217.387; 6.7689e-003
 479.855;  219.583; 6.8705e-003
 484.234;  221.779; 6.9649e-003
 488.625;  223.975; 7.0580e-003
 493.023;  226.171; 7.1511e-003
 497.409;  228.367; 7.2496e-003
 501.813;  230.562; 7.3449e-003
 506.201;  232.758; 7.4348e-003
 510.596;  234.954; 7.5252e-003
 514.985;  237.15; 7.6129e-003
 519.385;  239.346; 7.7140e-003
 523.765;  241.542; 7.7954e-003
 528.159;  243.738; 7.8966e-003
 532.548;  245.933; 7.9879e-003
 536.944;  248.129; 8.0773e-003
 541.339;  250.325; 8.1686e-003
 545.725;  252.521; 8.2505e-003
 550.116;  254.717; 8.3458e-003
 554.508;  256.913; 8.4281e-003
 558.905;  259.108; 8.5144e-003
 563.301;  261.304; 8.5953e-003
 567.692;  263.5; 8.6799e-003
 572.066;  265.696; 8.7617e-003
 576.47;  267.892; 8.8395e-003
 580.858;  270.087; 8.9119e-003
 585.248;  272.283; 8.9942e-003
 589.641;  274.479; 9.0612e-003
 594.021;  276.675; 9.1349e-003
 598.43;  278.871; 9.2028e-003
 602.81;  281.067; 9.2770e-003
 607.205;  283.263; 9.3390e-003
 611.59;  285.458; 9.4011e-003
 615.978;  287.654; 9.4573e-003
 620.37;  289.85; 9.5153e-003
 624.752;  292.046; 9.5684e-003
 629.144;  294.242; 9.6196e-003
 633.532;  296.438; 9.6655e-003
 637.925;  298.633; 9.7109e-003
 642.319;  300.829; 9.7500e-003
 646.704;  303.025; 9.7833e-003
 651.105;  305.221; 9.8228e-003
 655.5;  307.417; 9.8737e-003
 659.881;  309.612; 9.9078e-003
 664.271;  311.808; 9.9492e-003
 668.66;  314.004; 9.9816e-003
 673.045;  316.2; 1.0009e-002
 677.435;  318.396; 1.0028e-002
 681.828;  320.592; 1.0059e-002
 686.216;  322.788; 1.0074e-002
 690.604;  324.983; 1.0075e-002
 694.999;  327.179; 1.0085e-002
 699.389;  329.375; 1.0085e-002
 703.782;  331.571; 1.0075e-002
 708.168;  333.767; 1.0062e-002
 712.558;  335.962; 1.0045e-002
 716.955;  338.158; 1.0019e-002
 721.34;  340.354; 9.9816e-003
 725.727;  342.55; 9.9371e-003
 730.113;  344.746; 9.8826e-003
 734.513;  346.942; 9.8107e-003
 738.906;  349.138; 9.7329e-003
 743.285;  351.333; 9.6529e-003
 747.678;  353.529; 9.5562e-003
 752.071;  355.725; 9.4460e-003
 756.457;  357.921; 9.3166e-003
 760.846;  360.117; 9.1902e-003
 765.233;  362.312; 9.0499e-003
 769.628;  364.508; 8.8943e-003
 774.007;  366.704; 8.7271e-003
 778.408;  368.9; 8.5531e-003
 782.788;  371.096; 8.3593e-003
 787.189;  373.292; 8.1560e-003
 791.564;  375.487; 7.9348e-003
 795.963;  377.683; 7.6947e-003
 800.357;  379.879; 7.4451e-003
 804.734;  382.075; 7.1704e-003
 809.122;  384.271; 6.8791e-003
 813.515;  386.467; 6.5697e-003
 817.909;  388.663; 6.2410e-003
 822.299;  390.858; 5.8903e-003
 826.697;  393.054; 5.5139e-003
 831.089;  395.25; 5.1124e-003
 835.483;  397.446; 4.6889e-003
 839.87;  399.642; 4.2509e-003
 844.264;  401.837; 3.7779e-003
 848.655;  404.033; 3.2783e-003
 853.045;  406.229; 2.7527e-003
 857.44;  408.425; 2.1929e-003
 861.829;  410.621; 1.6084e-003
 866.213;  412.817; 9.9011e-004
 870.6;  415.013; 3.4173e-004
 874.988;  417.208;-3.3993e-004
 879.372;  419.404;-1.0490e-003
 883.762;  421.6;-1.7954e-003
 888.155;  423.796;-2.5715e-003
 892.545;  425.992;-3.3831e-003
 896.95;  428.188;-4.2230e-003
 901.331;  430.383;-5.0940e-003
 905.729;  432.579;-5.9951e-003
 910.121;  434.775;-6.9218e-003
 914.504;  436.971;-7.8741e-003
 918.891;  439.167;-8.8543e-003
 923.285;  441.362;-9.8579e-003
 927.672;  443.558;-1.0881e-002
 932.066;  445.754;-1.1915e-002
 936.459;  447.95;-1.2977e-002
 940.848;  450.146;-1.4048e-002
 945.239;  452.342;-1.5134e-002
 949.614;  454.538;-1.6232e-002
 954.004;  456.733;-1.7345e-002
 958.397;  458.929;-1.8483e-002
 962.787;  461.125;-1.9629e-002
 967.184;  463.321;-2.0793e-002
 971.57;  465.517;-2.1975e-002
 975.963;  467.712;-2.3179e-002
 980.35;  469.908;-2.4415e-002
 984.75;  472.104;-2.5646e-002
 989.139;  474.3;-2.6929e-002
 993.536;  476.496;-2.8226e-002
 997.934;  478.692;-2.9532e-002
1002.32;  480.888;-3.0877e-002
1006.71;  483.083;-3.2238e-002
1011.09;  485.279;-3.3616e-002
1015.5;  487.475;-3.5010e-002
1019.89;  489.671;-3.6419e-002
1024.27;  491.867;-3.7839e-002
1028.66;  494.062;-3.9262e-002
1033.05;  496.258;-4.0705e-002
1037.44;  498.454;-4.2160e-002
1041.84;  500.65;-4.3617e-002
1046.21;  502.846;-4.5084e-002
1050.6;  505.042;-4.6554e-002
1055.01;  507.237;-4.8003e-002
1059.4;  509.433;-4.9487e-002
1063.79;  511.629;-5.0918e-002
1068.17;  513.825;-5.2423e-002
1072.56;  516.021;-5.3863e-002
1076.96;  518.217;-5.5310e-002
1081.35;  520.412;-5.6759e-002
1085.74;  522.608;-5.8148e-002
1090.12;  524.804;-5.9544e-002
1094.51;  527;-6.0937e-002
1098.93;  529.196;-6.2253e-002
1103.3;  531.392;-6.3601e-002
1107.68;  533.588;-6.4872e-002
1112.07;  535.783;-6.6099e-002
1116.48;  537.979;-6.7338e-002
1120.87;  540.175;-6.8514e-002
1125.26;  542.371;-6.9682e-002
1129.65;  544.567;-7.0795e-002
1134.04;  546.763;-7.1876e-002
1138.43;  548.958;-7.2870e-002
1142.82;  551.154;-7.3880e-002
1147.22;  553.35;-7.4824e-002
1151.6;  555.546;-7.5685e-002
1155.98;  557.742;-7.6519e-002
1160.4;  559.938;-7.7281e-002
1164.78;  562.133;-7.7982e-002
1169.17;  564.329;-7.8664e-002
1173.56;  566.525;-7.9295e-002
1177.95;  568.721;-7.9846e-002
1182.34;  570.917;-8.0369e-002
1186.72;  573.112;-8.0855e-002
1191.12;  575.308;-8.1283e-002
1195.52;  577.504;-8.1764e-002
1199.91;  579.7;-8.2130e-002
1204.3;  581.896;-8.2483e-002
1208.7;  584.092;-8.2822e-002
1213.07;  586.287;-8.3134e-002
1217.48;  588.483;-8.3395e-002
1221.86;  590.679;-8.3662e-002
1226.24;  592.875;-8.3911e-002
1230.65;  595.071;-8.4142e-002
1235.04;  597.267;-8.4333e-002
1239.43;  599.463;-8.4577e-002
1243.83;  601.658;-8.4758e-002
1248.21;  603.854;-8.4965e-002
1252.6;  606.05;-8.5121e-002
1256.99;  608.246;-8.5276e-002
1261.38;  610.442;-8.5445e-002
1265.77;  612.638;-8.5558e-002
1270.2;  614.833;-8.5723e-002
1274.57;  617.029;-8.5879e-002
1278.96;  619.225;-8.6084e-002
1283.34;  621.421;-8.6300e-002
1287.73;  623.617;-8.6609e-002
1292.14;  625.812;-8.7076e-002
1296.53;  628.008;-8.7501e-002
1300.92;  630.204;-8.7906e-002
1305.31;  632.4;-8.8341e-002
1309.69;  634.596;-8.8750e-002
1314.09;  636.792;-8.9121e-002
1318.5;  638.987;-8.9466e-002
1322.88;  641.183;-8.9712e-002
1327.27;  643.379;-8.9853e-002
1331.66;  645.575;-8.9688e-002
1336.07;  647.771;-8.9655e-002
1340.45;  649.967;-8.9474e-002
1344.83;  652.162;-8.9192e-002
1349.23;  654.358;-8.9475e-002
1350.47;  654.982;-8.9460e-002

File: 000401_K06_1_1350_Air-static.txt
#FILE:                 ;000401_K06_1_1350_Air-static.sle
#FORMAT:               ;NETZSCH5
#IDENTITY:             ;000401
#DECIMAL:              ;POINT
#SEPARATOR:            ;SEMICOLON
#MTYPE:                ;DIL
#MSUBTYPE:             ;
#INSTRUMENT:           ;NETZSCH DIL 402 C
#PROJECT:              ;
#DATE/TIME:            ;26.06.2021 20:15:00
#CORR. FILE:           ;
#LABORATORY:           ;НМ
#OPERATOR:             ;Орлов Н.
#REMARK:               ;
#SAMPLE:               ;K06_1
#SAMPLE LENGTH /mm:    ;2.910
#MATERIAL:             ;стандартный образец
#MEASMODE:             ;Standard Expansion
#PURGE GAS 1:          ;
#FLOW RATE 1 /(ml/min):;0
#CORR. CODE:           ;000
#RANGE:                ;40.0/1.0(K/мин)/1350.0
#SEGMENT:              ;S1/1

##Temp./°C;Time/min;dL/Lo
  40.29600;0.0000e+000; 0.0000e+000
  42.60000;    4.37500;-5.5412e-005
  47.06500;    8.75000;-1.5249e-004
  52.40600;   13.12500;-2.1220e-004
  57.61500;   17.50000;-2.0747e-004
  62.32300;   21.87500;-1.6151e-004
  66.66700;   26.25000;-9.6220e-005
  70.90700;   30.62500;-4.1237e-005
  75.20300;   35.00000; 1.0739e-005
  79.57600;   39.37500; 5.7560e-005
  83.98100;   43.75000; 1.0610e-004
  88.38800;   48.12500; 1.5550e-004
  92.79500;   52.50000; 2.1306e-004
  97.17800;   56.87500; 2.7191e-004
 101.553;   61.25000; 3.3333e-004
 105.935;   65.62500; 3.9304e-004
 110.324;   70.00000; 4.5747e-004
 114.724;   74.37500; 5.2406e-004
 119.113;   78.75000; 5.9107e-004
 123.503;   83.12500; 6.5894e-004
 127.895;   87.50000; 7.2938e-004
 132.257;   91.87500; 7.9983e-004
 136.65;   96.25000; 8.6985e-004
 141.033;  100.625; 9.4459e-004
 145.412;  105; 1.0180e-003
 149.798;  109.375; 1.0889e-003
 154.183;  113.75; 1.1641e-003
 158.565;  118.125; 1.2393e-003
 162.947;  122.5; 1.3123e-003
 167.337;  126.875; 1.3849e-003
 171.714;  131.25; 1.4609e-003
 176.092;  135.625; 1.5326e-003
 180.479;  140; 1.6070e-003
 184.86;  144.375; 1.6830e-003
 189.234;  148.75; 1.7543e-003
 193.613;  153.125; 1.8312e-003
 197.989;  157.5; 1.9064e-003
 202.373;  161.875; 1.9850e-003
 206.759;  166.25; 2.0614e-003
 211.15;  170.625; 2.1452e-003
 215.564;  175; 2.2259e-003
 219.96;  179.375; 2.3101e-003
 224.343;  183.75; 2.3956e-003
 228.674;  188.125; 2.4751e-003
 232.997;  192.5; 2.5520e-003
 237.363;  196.875; 2.6276e-003
 241.739;  201.25; 2.7083e-003
 246.101;  205.625; 2.7878e-003
 250.486;  210; 2.8707e-003
 254.882;  214.375; 2.9609e-003
 259.266;  218.75; 3.0498e-003
 263.665;  223.125; 3.1370e-003
 268.038;  227.5; 3.2217e-003
 272.42;  231.875; 3.3101e-003
 276.802;  236.25; 3.3935e-003
 281.173;  240.625; 3.4845e-003
 285.551;  245; 3.5662e-003
 289.93;  249.375; 3.6499e-003
 294.302;  253.75; 3.7358e-003
 298.672;  258.125; 3.8200e-003
 303.057;  262.5; 3.9042e-003
 307.437;  266.875; 3.9807e-003
 311.818;  271.25; 4.0636e-003
 316.187;  275.625; 4.1413e-003
 320.563;  280; 4.2152e-003
 324.95;  284.375; 4.3037e-003
 329.318;  288.75; 4.3793e-003
 333.69;  293.125; 4.4643e-003
 338.074;  297.5; 4.5412e-003
 342.449;  301.875; 4.6177e-003
 346.821;  306.25; 4.6899e-003
 351.2;  310.625; 4.7599e-003
 355.571;  315; 4.8243e-003
 359.954;  319.375; 4.8806e-003
 364.33;  323.75; 4.9356e-003
 368.704;  328.125; 4.9850e-003
 373.083;  332.5; 5.0309e-003
 377.459;  336.875; 5.0692e-003
 381.832;  341.25; 5.0945e-003
 386.211;  345.625; 5.1220e-003
 390.582;  350; 5.1409e-003
 394.952;  354.375; 5.1538e-003
 399.331;  358.75; 5.1624e-003
 403.708;  363.125; 5.1710e-003
 408.083;  367.5; 5.1783e-003
 412.459;  371.875; 5.2010e-003
 416.838;  376.25; 5.2315e-003
 421.212;  380.625; 5.2728e-003
 425.582;  385; 5.3308e-003
 429.967;  389.375; 5.3982e-003
 434.344;  393.75; 5.4759e-003
 438.713;  398.125; 5.5507e-003
 443.093;  402.5; 5.6349e-003
 447.465;  406.875; 5.7113e-003
 451.841;  411.25; 5.7968e-003
 456.215;  415.625; 5.8754e-003
 460.588;  420; 5.9506e-003
 464.967;  424.375; 6.0348e-003
 469.342;  428.75; 6.1156e-003
 473.718;  433.125; 6.1989e-003
 478.1;  437.5; 6.2784e-003
 482.464;  441.875; 6.3565e-003
 486.846;  446.25; 6.4412e-003
 491.22;  450.625; 6.5172e-003
 495.596;  455; 6.5915e-003
 499.973;  459.375; 6.6692e-003
 504.344;  463.75; 6.7410e-003
 508.72;  468.125; 6.8123e-003
 513.094;  472.5; 6.8853e-003
 517.471;  476.875; 6.9545e-003
 521.845;  481.25; 7.0163e-003
 526.217;  485.625; 7.0825e-003
 530.596;  490; 7.1413e-003
 534.972;  494.375; 7.2049e-003
 539.348;  498.75; 7.2646e-003
 543.728;  503.125; 7.3252e-003
 548.097;  507.5; 7.3793e-003
 552.47;  511.875; 7.4373e-003
 556.84;  516.25; 7.4828e-003
 561.222;  520.625; 7.5331e-003
 565.594;  525; 7.5842e-003
 569.963;  529.375; 7.6306e-003
 574.348;  533.75; 7.6770e-003
 578.716;  538.125; 7.7096e-003
 583.102;  542.5; 7.7479e-003
 587.467;  546.875; 7.7887e-003
 591.838;  551.25; 7.8192e-003
 596.217;  555.625; 7.8475e-003
 600.578;  560; 7.8746e-003
 604.973;  564.375; 7.9003e-003
 609.341;  568.75; 7.9197e-003
 613.714;  573.125; 7.9313e-003
 618.091;  577.5; 7.9553e-003
 622.467;  581.875; 7.9712e-003
 626.837;  586.25; 7.9888e-003
 631.22;  590.625; 7.9961e-003
 635.586;  595; 8.0039e-003
 639.969;  599.375; 8.0013e-003
 644.331;  603.75; 8.0077e-003
 648.714;  608.125; 8.0030e-003
 653.091;  612.5; 8.0232e-003
 657.458;  616.875; 8.0279e-003
 661.832;  621.25; 8.0292e-003
 666.208;  625.625; 8.0275e-003
 670.58;  630; 8.0232e-003
 674.954;  634.375; 8.0129e-003
 679.332;  638.75; 7.9970e-003
 683.7;  643.125; 7.9794e-003
 688.072;  647.5; 7.9605e-003
 692.463;  651.875; 7.9339e-003
 696.827;  656.25; 7.8909e-003
 701.208;  660.625; 7.8509e-003
 705.57;  665; 7.7981e-003
 709.95;  669.375; 7.7397e-003
 714.33;  673.75; 7.6710e-003
 718.701;  678.125; 7.5967e-003
 723.07;  682.5; 7.5013e-003
 727.451;  686.875; 7.4029e-003
 731.815;  691.25; 7.2904e-003
 736.199;  695.625; 7.1624e-003
 740.572;  700; 7.0232e-003
 744.952;  704.375; 6.8750e-003
 749.322;  708.75; 6.7019e-003
 753.69;  713.125; 6.5103e-003
 758.063;  717.5; 6.3076e-003
 762.428;  721.875; 6.0919e-003
 766.811;  726.25; 5.8548e-003
 771.188;  730.625; 5.5958e-003
 775.558;  735; 5.3329e-003
 779.931;  739.375; 5.0404e-003
 784.306;  743.75; 4.7328e-003
 788.677;  748.125; 4.4064e-003
 793.054;  752.5; 4.0601e-003
 797.432;  756.875; 3.6950e-003
 801.806;  761.25; 3.3119e-003
 806.177;  765.625; 2.9055e-003
 810.551;  770; 2.4781e-003
 814.938;  774.375; 2.0241e-003
 819.301;  778.75; 1.5357e-003
 823.677;  783.125; 1.0271e-003
 828.057;  787.5; 4.8797e-004
 832.432;  791.875;-6.4003e-005
 836.809;  796.25;-6.5077e-004
 841.168;  800.625;-1.2599e-003
 845.552;  805;-1.8973e-003
 849.931;  809.375;-2.5674e-003
 854.309;  813.75;-3.2582e-003
 858.673;  818.125;-3.9777e-003
 863.048;  822.5;-4.7238e-003
 867.416;  826.875;-5.4983e-003
 871.798;  831.25;-6.3003e-003
 876.173;  835.625;-7.1276e-003
 880.548;  840;-7.9966e-003
 884.925;  844.375;-8.8922e-003
 889.299;  848.75;-9.8205e-003
 893.665;  853.125;-1.0778e-002
 898.043;  857.5;-1.1775e-002
 902.415;  861.875;-1.2813e-002
 906.794;  866.25;-1.3873e-002
 911.168;  870.625;-1.4983e-002
 915.543;  875;-1.6117e-002
 919.909;  879.375;-1.7289e-002
 924.292;  883.75;-1.8481e-002
 928.666;  888.125;-1.9704e-002
 933.041;  892.5;-2.0970e-002
 937.42;  896.875;-2.2253e-002
 941.786;  901.25;-2.3551e-002
 946.155;  905.625;-2.4877e-002
 950.539;  910;-2.6218e-002
 954.912;  914.375;-2.7547e-002
 959.29;  918.75;-2.8871e-002
 963.644;  923.125;-3.0242e-002
 968.033;  927.5;-3.1594e-002
 972.41;  931.875;-3.2985e-002
 976.782;  936.25;-3.4412e-002
 981.16;  940.625;-3.5878e-002
 985.53;  945;-3.7353e-002
 989.907;  949.375;-3.8836e-002
 994.281;  953.75;-4.0305e-002
 998.663;  958.125;-4.1759e-002
1003.03;  962.5;-4.3220e-002
1007.4;  966.875;-4.4674e-002
1011.78;  971.25;-4.6177e-002
1016.16;  975.625;-4.7665e-002
1020.54;  980;-4.9122e-002
1024.9;  984.375;-5.0628e-002
1029.28;  988.75;-5.2113e-002
1033.65;  993.125;-5.3630e-002
1038.03;  997.5;-5.5094e-002
1042.41; 1001.88;-5.6569e-002
1046.77; 1006.25;-5.8030e-002
1051.15; 1010.62;-5.9466e-002
1055.52; 1015;-6.0858e-002
1059.9; 1019.38;-6.2305e-002
1064.26; 1023.75;-6.3710e-002
1068.66; 1028.12;-6.5069e-002
1073.02; 1032.5;-6.6425e-002
1077.39; 1036.88;-6.7742e-002
1081.77; 1041.25;-6.9024e-002
1086.14; 1045.62;-7.0301e-002
1090.53; 1050;-7.1514e-002
1094.89; 1054.38;-7.2689e-002
1099.27; 1058.75;-7.3821e-002
1103.66; 1063.12;-7.4887e-002
1108.01; 1067.5;-7.5936e-002
1112.39; 1071.88;-7.6974e-002
1116.77; 1076.25;-7.7897e-002
1121.15; 1080.62;-7.8855e-002
1125.53; 1085;-7.9712e-002
1129.89; 1089.38;-8.0520e-002
1134.27; 1093.75;-8.1219e-002
1138.65; 1098.12;-8.1989e-002
1143.03; 1102.5;-8.2687e-002
1147.4; 1106.88;-8.3348e-002
1151.77; 1111.25;-8.3900e-002
1156.16; 1115.62;-8.4491e-002
1160.52; 1120;-8.5003e-002
1164.9; 1124.38;-8.5486e-002
1169.26; 1128.75;-8.5926e-002
1173.65; 1133.12;-8.6273e-002
1178.01; 1137.5;-8.6680e-002
1182.4; 1141.88;-8.7031e-002
1186.76; 1146.25;-8.7289e-002
1191.14; 1150.62;-8.7616e-002
1195.51; 1155;-8.7875e-002
1199.89; 1159.38;-8.8091e-002
1204.27; 1163.75;-8.8301e-002
1208.63; 1168.12;-8.8433e-002
1213.02; 1172.5;-8.8682e-002
1217.39; 1176.88;-8.8769e-002
1221.76; 1181.25;-8.8894e-002
1226.14; 1185.62;-8.8997e-002
1230.5; 1190;-8.9063e-002
1234.88; 1194.38;-8.9139e-002
1239.25; 1198.75;-8.9214e-002
1243.63; 1203.12;-8.9182e-002
1248.02; 1207.5;-8.9006e-002
1252.39; 1211.88;-8.9046e-002
1256.78; 1216.25;-8.9259e-002
1261.14; 1220.62;-8.9384e-002
1265.52; 1225;-8.9598e-002
1269.9; 1229.38;-8.9637e-002
1274.25; 1233.75;-8.9669e-002
1278.64; 1238.12;-8.9543e-002
1283.03; 1242.5;-8.9077e-002
1287.38; 1246.88;-8.8972e-002
1291.76; 1251.25;-8.8606e-002
1296.14; 1255.62;-8.8211e-002
1300.51; 1260;-8.7958e-002
1304.89; 1264.38;-8.7637e-002
1309.26; 1268.75;-8.6894e-002
1313.63; 1273.12;-8.6000e-002
1318.01; 1277.5;-8.4485e-002
1322.4; 1281.88;-8.1794e-002
1326.77; 1286.25;-7.9089e-002
1331.14; 1290.62;-7.6787e-002
1335.5; 1295;-7.7365e-002
1339.88; 1299.38;-7.3988e-002
1344.26; 1303.75;-7.3763e-002
1348.64; 1308.12;-7.2605e-002
1350.51; 1310;-7.2232e-002