Folder: TestRepo (part 3)

File: 000396_correction_saphire_5_1350_Air-static.txt
#FILE:                 ;000396_correction_saphire_5_1350_Air-static.cle
#FORMAT:               ;NETZSCH5
#IDENTITY:             ;000396
#DECIMAL:              ;POINT
#SEPARATOR:            ;SEMICOLON
#MTYPE:                ;DIL
#MSUBTYPE:             ;
#INSTRUMENT:           ;NETZSCH DIL 402 C
#PROJECT:              ;
#DATE/TIME:            ;23.06.2021 18:41:50
#CORR. FILE:           ;
#LABORATORY:           ;НМ
#OPERATOR:             ;Орлов Н.
#REMARK:               ;
#SAMPLE:               ;corr_5
#SAMPLE LENGTH /mm:    ;3.010
#MATERIAL:             ;стандартный образец
#MEASMODE:             ;Standard Expansion
#PURGE GAS 1:          ;
#FLOW RATE 1 /(ml/min):;0
#CORR. CODE:           ;000
#RANGE:                ;40.0/5.0(K/мин)/1350.0
#SEGMENT:              ;S1/1

##Temp./°C;Time/min;dL/Lo
  40.39500;0.0000e+000; 0.0000e+000
  40.88400;    0.88000;-1.1752e-005
  42.41200;    1.76000;-5.6105e-005
  44.51300;    2.64000;-1.2471e-004
  47.35200;    3.52000;-2.2404e-004
  50.86700;    4.40000;-3.4884e-004
  54.97100;    5.28000;-4.9444e-004
  59.60200;    6.16000;-6.4743e-004
  64.63700;    7.04000;-8.1076e-004
  69.98200;    7.92000;-9.7388e-004
  75.58200;    8.80000;-1.1282e-003
  81.31500;    9.68000;-1.2685e-003
  87.08000;   10.56000;-1.3923e-003
  92.81500;   11.44000;-1.4953e-003
  98.46100;   12.32000;-1.5715e-003
 103.977;   13.20000;-1.6247e-003
 109.343;   14.08000;-1.6558e-003
 114.593;   14.96000;-1.6655e-003
 119.684;   15.84000;-1.6545e-003
 124.653;   16.72000;-1.6257e-003
 129.472;   17.60000;-1.5838e-003
 134.161;   18.48000;-1.5319e-003
 138.75;   19.36000;-1.4705e-003
 143.221;   20.24000;-1.4047e-003
 147.623;   21.12000;-1.3309e-003
 151.947;   22.00000;-1.2617e-003
 156.257;   22.88000;-1.1914e-003
 160.536;   23.76000;-1.1208e-003
 164.795;   24.64000;-1.0538e-003
 169.071;   25.52000;-9.9095e-004
 173.352;   26.40000;-9.3086e-004
 177.639;   27.28000;-8.8870e-004
 181.943;   28.16000;-8.3526e-004
 186.263;   29.04000;-7.8356e-004
 190.607;   29.92000;-7.3912e-004
 194.93;   30.80000;-6.9452e-004
 199.311;   31.68000;-6.5249e-004
 203.678;   32.56000;-6.1350e-004
 208.065;   33.44000;-5.7633e-004
 212.473;   34.32000;-5.4606e-004
 216.863;   35.20000;-5.0856e-004
 221.28;   36.08000;-4.7542e-004
 225.696;   36.96000;-4.3924e-004
 230.12;   37.84000;-4.4373e-004
 234.534;   38.72000;-4.0843e-004
 238.958;   39.60000;-3.6657e-004
 243.383;   40.48000;-3.2691e-004
 247.799;   41.36000;-2.9261e-004
 252.224;   42.24000;-2.5606e-004
 256.632;   43.12000;-2.1649e-004
 261.044;   44.00000;-1.7670e-004
 265.452;   44.88000;-1.4165e-004
 269.857;   45.76000;-1.0685e-004
 274.266;   46.64000;-7.1179e-005
 278.668;   47.52000;-3.1728e-005
 283.071;   48.40000; 5.8555e-006
 287.479;   49.28000; 4.4477e-005
 291.882;   50.16000; 8.3347e-005
 296.283;   51.04000; 1.1831e-004
 300.679;   51.92000; 1.5370e-004
 305.088;   52.80000; 1.8970e-004
 309.478;   53.68000; 2.2446e-004
 313.894;   54.56000; 2.6017e-004
 318.294;   55.44000; 2.9385e-004
 322.689;   56.32000; 3.2724e-004
 327.087;   57.20000; 3.6105e-004
 331.488;   58.08000; 3.9576e-004
 335.897;   58.96000; 4.3086e-004
 340.291;   59.84000; 4.6308e-004
 344.698;   60.72000; 4.9576e-004
 349.091;   61.60000; 5.2766e-004
 353.491;   62.48000; 5.6030e-004
 357.9;   63.36000; 5.9107e-004
 362.297;   64.24000; 6.2496e-004
 366.701;   65.12000; 6.5735e-004
 371.104;   66.00000; 6.8634e-004
 375.503;   66.88000; 7.1869e-004
 379.898;   67.76000; 7.4809e-004
 384.309;   68.64000; 7.7911e-004
 388.702;   69.52000; 8.0843e-004
 393.098;   70.40000; 8.4169e-004
 397.502;   71.28000; 8.7421e-004
 401.908;   72.16000; 9.0370e-004
 406.299;   73.04000; 9.3422e-004
 410.702;   73.92000; 9.6296e-004
 415.103;   74.80000; 9.9643e-004
 419.505;   75.68000; 1.0259e-003
 423.909;   76.56000; 1.0552e-003
 428.3;   77.44000; 1.0845e-003
 432.702;   78.32000; 1.1134e-003
 437.09;   79.20000; 1.1446e-003
 441.49;   80.08000; 1.1775e-003
 445.901;   80.96000; 1.2031e-003
 450.285;   81.84000; 1.2320e-003
 454.69;   82.72000; 1.2552e-003
 459.091;   83.60000; 1.2924e-003
 463.484;   84.48000; 1.3205e-003
 467.89;   85.36000; 1.3477e-003
 472.282;   86.24000; 1.3797e-003
 476.671;   87.12000; 1.4069e-003
 481.082;   88.00000; 1.4392e-003
 485.469;   88.88000; 1.4644e-003
 489.861;   89.76000; 1.4947e-003
 494.267;   90.64000; 1.5279e-003
 498.658;   91.52000; 1.5567e-003
 503.066;   92.40000; 1.5846e-003
 507.463;   93.28000; 1.6170e-003
 511.86;   94.16000; 1.6417e-003
 516.263;   95.04000; 1.6716e-003
 520.659;   95.92000; 1.6981e-003
 525.05;   96.80000; 1.7309e-003
 529.457;   97.68000; 1.7589e-003
 533.849;   98.56000; 1.7844e-003
 538.25;   99.44000; 1.8163e-003
 542.664;  100.32; 1.8487e-003
 547.043;  101.2; 1.8735e-003
 551.451;  102.08; 1.9033e-003
 555.843;  102.96; 1.9359e-003
 560.241;  103.84; 1.9603e-003
 564.644;  104.72; 1.9927e-003
 569.049;  105.6; 2.0239e-003
 573.451;  106.48; 2.0514e-003
 577.846;  107.36; 2.0770e-003
 582.243;  108.24; 2.1115e-003
 586.647;  109.12; 2.1391e-003
 591.029;  110; 2.1683e-003
 595.434;  110.88; 2.1985e-003
 599.833;  111.76; 2.2291e-003
 604.216;  112.64; 2.2576e-003
 608.615;  113.52; 2.2866e-003
 613.004;  114.4; 2.3185e-003
 617.403;  115.28; 2.3488e-003
 621.794;  116.16; 2.3778e-003
 626.181;  117.04; 2.4088e-003
 630.577;  117.92; 2.4390e-003
 634.976;  118.8; 2.4668e-003
 639.373;  119.68; 2.4988e-003
 643.764;  120.56; 2.5273e-003
 648.152;  121.44; 2.5582e-003
 652.545;  122.32; 2.5907e-003
 656.945;  123.2; 2.6204e-003
 661.342;  124.08; 2.6515e-003
 665.734;  124.96; 2.6836e-003
 670.146;  125.84; 2.7137e-003
 674.525;  126.72; 2.7454e-003
 678.943;  127.6; 2.7781e-003
 683.334;  128.48; 2.8093e-003
 687.721;  129.36; 2.8378e-003
 692.118;  130.24; 2.8690e-003
 696.506;  131.12; 2.9027e-003
 700.897;  132; 2.9306e-003
 705.305;  132.88; 2.9638e-003
 709.701;  133.76; 2.9897e-003
 714.09;  134.64; 3.0248e-003
 718.487;  135.52; 3.0598e-003
 722.878;  136.4; 3.0879e-003
 727.269;  137.28; 3.1218e-003
 731.677;  138.16; 3.1477e-003
 736.065;  139.04; 3.1828e-003
 740.462;  139.92; 3.2171e-003
 744.847;  140.8; 3.2429e-003
 749.247;  141.68; 3.2766e-003
 753.63;  142.56; 3.3063e-003
 758.026;  143.44; 3.3394e-003
 762.409;  144.32; 3.3696e-003
 766.821;  145.2; 3.3968e-003
 771.219;  146.08; 3.4256e-003
 775.609;  146.96; 3.4554e-003
 779.997;  147.84; 3.4844e-003
 784.39;  148.72; 3.5138e-003
 788.791;  149.6; 3.5447e-003
 793.193;  150.48; 3.5738e-003
 797.59;  151.36; 3.6012e-003
 801.982;  152.24; 3.6272e-003
 806.383;  153.12; 3.6488e-003
 810.785;  154; 3.6765e-003
 815.178;  154.88; 3.7000e-003
 819.577;  155.76; 3.7289e-003
 823.972;  156.64; 3.7567e-003
 828.376;  157.52; 3.7825e-003
 832.766;  158.4; 3.8131e-003
 837.162;  159.28; 3.8414e-003
 841.561;  160.16; 3.8692e-003
 845.958;  161.04; 3.8984e-003
 850.343;  161.92; 3.9236e-003
 854.747;  162.8; 3.9557e-003
 859.132;  163.68; 3.9856e-003
 863.527;  164.56; 4.0170e-003
 867.912;  165.44; 4.0467e-003
 872.321;  166.32; 4.0808e-003
 876.709;  167.2; 4.1140e-003
 881.102;  168.08; 4.1456e-003
 885.492;  168.96; 4.1780e-003
 889.892;  169.84; 4.2056e-003
 894.287;  170.72; 4.2412e-003
 898.688;  171.6; 4.2808e-003
 903.084;  172.48; 4.3138e-003
 907.488;  173.36; 4.3490e-003
 911.881;  174.24; 4.3823e-003
 916.273;  175.12; 4.4245e-003
 920.667;  176; 4.4530e-003
 925.08;  176.88; 4.4983e-003
 929.468;  177.76; 4.5309e-003
 933.862;  178.64; 4.5693e-003
 938.252;  179.52; 4.6043e-003
 942.646;  180.4; 4.6407e-003
 947.04;  181.28; 4.6743e-003
 951.441;  182.16; 4.7096e-003
 955.836;  183.04; 4.7510e-003
 960.216;  183.92; 4.7883e-003
 964.613;  184.8; 4.8293e-003
 969.009;  185.68; 4.8686e-003
 973.423;  186.56; 4.9066e-003
 977.808;  187.44; 4.9466e-003
 982.218;  188.32; 4.9863e-003
 986.611;  189.2; 5.0213e-003
 991.012;  190.08; 5.0641e-003
 995.405;  190.96; 5.1029e-003
 999.806;  191.84; 5.1366e-003
1004.21;  192.72; 5.1753e-003
1008.6;  193.6; 5.2132e-003
1012.99;  194.48; 5.2488e-003
1017.4;  195.36; 5.2826e-003
1021.8;  196.24; 5.3143e-003
1026.2;  197.12; 5.3458e-003
1030.59;  198; 5.3791e-003
1034.99;  198.88; 5.4100e-003
1039.39;  199.76; 5.4498e-003
1043.78;  200.64; 5.4887e-003
1048.18;  201.52; 5.5239e-003
1052.57;  202.4; 5.5622e-003
1056.97;  203.28; 5.5904e-003
1061.36;  204.16; 5.6289e-003
1065.76;  205.04; 5.6589e-003
1070.16;  205.92; 5.6944e-003
1074.56;  206.8; 5.7323e-003
1078.94;  207.68; 5.7716e-003
1083.35;  208.56; 5.8031e-003
1087.75;  209.44; 5.8458e-003
1092.15;  210.32; 5.8831e-003
1096.55;  211.2; 5.9157e-003
1100.94;  212.08; 5.9480e-003
1105.33;  212.96; 5.9849e-003
1109.74;  213.84; 6.0238e-003
1114.14;  214.72; 6.0583e-003
1118.52;  215.6; 6.0940e-003
1122.93;  216.48; 6.1250e-003
1127.33;  217.36; 6.1554e-003
1131.73;  218.24; 6.1896e-003
1136.12;  219.12; 6.2194e-003
1140.52;  220; 6.2572e-003
1144.92;  220.88; 6.2843e-003
1149.32;  221.76; 6.3165e-003
1153.72;  222.64; 6.3450e-003
1158.11;  223.52; 6.3762e-003
1162.52;  224.4; 6.4020e-003
1166.92;  225.28; 6.4267e-003
1171.3;  226.16; 6.4560e-003
1175.72;  227.04; 6.4866e-003
1180.11;  227.92; 6.5119e-003
1184.51;  228.8; 6.5350e-003
1188.89;  229.68; 6.5567e-003
1193.3;  230.56; 6.5856e-003
1197.69;  231.44; 6.6081e-003
1202.1;  232.32; 6.6309e-003
1206.49;  233.2; 6.6555e-003
1210.9;  234.08; 6.6738e-003
1215.28;  234.96; 6.6971e-003
1219.69;  235.84; 6.7179e-003
1224.1;  236.72; 6.7367e-003
1228.5;  237.6; 6.7510e-003
1232.89;  238.48; 6.7680e-003
1237.3;  239.36; 6.7837e-003
1241.69;  240.24; 6.7987e-003
1246.08;  241.12; 6.8096e-003
1250.49;  242; 6.8220e-003
1254.87;  242.88; 6.8306e-003
1259.3;  243.76; 6.8322e-003
1263.69;  244.64; 6.8489e-003
1268.1;  245.52; 6.8521e-003
1272.5;  246.4; 6.8574e-003
1276.89;  247.28; 6.8586e-003
1281.29;  248.16; 6.8463e-003
1285.7;  249.04; 6.8321e-003
1290.09;  249.92; 6.8170e-003
1294.49;  250.8; 6.8201e-003
1298.89;  251.68; 6.8194e-003
1303.3;  252.56; 6.8186e-003
1307.68;  253.44; 6.8116e-003
1312.08;  254.32; 6.8108e-003
1316.5;  255.2; 6.7979e-003
1320.9;  256.08; 6.7877e-003
1325.3;  256.96; 6.7706e-003
1329.69;  257.84; 6.7595e-003
1334.1;  258.72; 6.7459e-003
1338.49;  259.6; 6.7277e-003
1342.9;  260.48; 6.7021e-003
1347.29;  261.36; 6.6826e-003
1350.45;  261.99; 6.6550e-003

File: 000397_K06_5_1350_Air-static.txt
#FILE:                 ;000397_K06_5_1350_Air-static.sle
#FORMAT:               ;NETZSCH5
#IDENTITY:             ;000397
#DECIMAL:              ;POINT
#SEPARATOR:            ;SEMICOLON
#MTYPE:                ;DIL
#MSUBTYPE:             ;
#INSTRUMENT:           ;NETZSCH DIL 402 C
#PROJECT:              ;
#DATE/TIME:            ;24.06.2021 13:17:17
#CORR. FILE:           ;
#LABORATORY:           ;НМ
#OPERATOR:             ;Орлов Н.
#REMARK:               ;
#SAMPLE:               ;corr_5
#SAMPLE LENGTH /mm:    ;2.400
#MATERIAL:             ;стандартный образец
#MEASMODE:             ;Standard Expansion
#PURGE GAS 1:          ;
#FLOW RATE 1 /(ml/min):;0
#CORR. CODE:           ;000
#RANGE:                ;40.0/5.0(K/мин)/1350.0
#SEGMENT:              ;S1/1

##Temp./°C;Time/min;dL/Lo
  40.34600;0.0000e+000; 0.0000e+000
  40.92700;    0.88000;-1.2500e-005
  42.55400;    1.76000;-5.7292e-005
  44.72000;    2.64000;-1.3073e-004
  47.63400;    3.52000;-2.3698e-004
  51.19200;    4.40000;-3.6927e-004
  55.31700;    5.28000;-5.1823e-004
  59.94600;    6.16000;-6.8333e-004
  64.98700;    7.04000;-8.4844e-004
  70.32700;    7.92000;-1.0135e-003
  75.89300;    8.80000;-1.1766e-003
  81.58800;    9.68000;-1.3281e-003
  87.32500;   10.56000;-1.4620e-003
  93.02900;   11.44000;-1.5703e-003
  98.63700;   12.32000;-1.6526e-003
 104.112;   13.20000;-1.7083e-003
 109.455;   14.08000;-1.7328e-003
 114.673;   14.96000;-1.7318e-003
 119.747;   15.84000;-1.7198e-003
 124.682;   16.72000;-1.6911e-003
 129.48;   17.60000;-1.6349e-003
 134.16;   18.48000;-1.5667e-003
 138.715;   19.36000;-1.4922e-003
 143.177;   20.24000;-1.4120e-003
 147.57;   21.12000;-1.3219e-003
 151.922;   22.00000;-1.2245e-003
 156.203;   22.88000;-1.1271e-003
 160.474;   23.76000;-1.0328e-003
 164.76;   24.64000;-9.4219e-004
 169.022;   25.52000;-8.5938e-004
 173.298;   26.40000;-7.7240e-004
 177.602;   27.28000;-6.9219e-004
 181.91;   28.16000;-6.1354e-004
 186.236;   29.04000;-5.3958e-004
 190.589;   29.92000;-4.6146e-004
 194.942;   30.80000;-3.8750e-004
 199.314;   31.68000;-3.1771e-004
 203.682;   32.56000;-2.4271e-004
 208.079;   33.44000;-1.7396e-004
 212.482;   34.32000;-1.0260e-004
 216.91;   35.20000;-3.1250e-005
 221.322;   36.08000; 3.8021e-005
 225.742;   36.96000; 1.0365e-004
 230.182;   37.84000; 1.5885e-004
 234.614;   38.72000; 2.1979e-004
 239.056;   39.60000; 2.8646e-004
 243.532;   40.48000; 3.4896e-004
 248.011;   41.36000; 4.2240e-004
 252.507;   42.24000; 4.9479e-004
 257.042;   43.12000; 5.7135e-004
 261.574;   44.00000; 6.5156e-004
 266.132;   44.88000; 7.2031e-004
 270.65;   45.76000; 7.8854e-004
 275.123;   46.64000; 8.6719e-004
 279.487;   47.52000; 9.4635e-004
 283.751;   48.40000; 1.0172e-003
 288.293;   49.28000; 1.0844e-003
 292.228;   50.16000; 1.1635e-003
 295.863;   51.04000; 1.2302e-003
 299.689;   51.92000; 1.2781e-003
 303.778;   52.80000; 1.3156e-003
 308.175;   53.68000; 1.3333e-003
 312.759;   54.56000; 1.3714e-003
 317.411;   55.44000; 1.4203e-003
 322.055;   56.32000; 1.4844e-003
 326.669;   57.20000; 1.5625e-003
 331.238;   58.08000; 1.6521e-003
 335.769;   58.96000; 1.7469e-003
 340.258;   59.84000; 1.8526e-003
 344.717;   60.72000; 1.9542e-003
 349.151;   61.60000; 2.0505e-003
 353.568;   62.48000; 2.1531e-003
 357.967;   63.36000; 2.2479e-003
 362.366;   64.24000; 2.3490e-003
 366.761;   65.12000; 2.4479e-003
 371.151;   66.00000; 2.5406e-003
 375.541;   66.88000; 2.6271e-003
 379.936;   67.76000; 2.7104e-003
 384.329;   68.64000; 2.7917e-003
 388.728;   69.52000; 2.8677e-003
 393.111;   70.40000; 2.9411e-003
 397.507;   71.28000; 3.0057e-003
 401.905;   72.16000; 3.0672e-003
 406.311;   73.04000; 3.1214e-003
 410.709;   73.92000; 3.1740e-003
 415.09;   74.80000; 3.2276e-003
 419.501;   75.68000; 3.2771e-003
 423.881;   76.56000; 3.3250e-003
 428.287;   77.44000; 3.3729e-003
 432.685;   78.32000; 3.4286e-003
 437.086;   79.20000; 3.4849e-003
 441.476;   80.08000; 3.5479e-003
 445.874;   80.96000; 3.6208e-003
 450.272;   81.84000; 3.6927e-003
 454.669;   82.72000; 3.7745e-003
 459.068;   83.60000; 3.8573e-003
 463.462;   84.48000; 3.9438e-003
 467.861;   85.36000; 4.0365e-003
 472.258;   86.24000; 4.1344e-003
 476.659;   87.12000; 4.2255e-003
 481.062;   88.00000; 4.3177e-003
 485.457;   88.88000; 4.4146e-003
 489.849;   89.76000; 4.5109e-003
 494.255;   90.64000; 4.6083e-003
 498.656;   91.52000; 4.7005e-003
 503.047;   92.40000; 4.7786e-003
 507.447;   93.28000; 4.8661e-003
 511.852;   94.16000; 4.9500e-003
 516.254;   95.04000; 5.0328e-003
 520.653;   95.92000; 5.1245e-003
 525.06;   96.80000; 5.2172e-003
 529.459;   97.68000; 5.3068e-003
 533.86;   98.56000; 5.3979e-003
 538.245;   99.44000; 5.4859e-003
 542.651;  100.32; 5.5734e-003
 547.048;  101.2; 5.6589e-003
 551.451;  102.08; 5.7526e-003
 555.847;  102.96; 5.8333e-003
 560.258;  103.84; 5.9172e-003
 564.64;  104.72; 5.9995e-003
 569.047;  105.6; 6.0797e-003
 573.435;  106.48; 6.1521e-003
 577.834;  107.36; 6.2401e-003
 582.241;  108.24; 6.3182e-003
 586.643;  109.12; 6.3990e-003
 591.032;  110; 6.4734e-003
 595.432;  110.88; 6.5432e-003
 599.827;  111.76; 6.6182e-003
 604.221;  112.64; 6.6896e-003
 608.619;  113.52; 6.7563e-003
 613.01;  114.4; 6.8245e-003
 617.394;  115.28; 6.8969e-003
 621.796;  116.16; 6.9557e-003
 626.184;  117.04; 7.0120e-003
 630.583;  117.92; 7.0646e-003
 634.981;  118.8; 7.1240e-003
 639.373;  119.68; 7.1714e-003
 643.753;  120.56; 7.2234e-003
 648.152;  121.44; 7.2651e-003
 652.543;  122.32; 7.3052e-003
 656.936;  123.2; 7.3495e-003
 661.342;  124.08; 7.4182e-003
 665.744;  124.96; 7.4781e-003
 670.137;  125.84; 7.5349e-003
 674.527;  126.72; 7.5818e-003
 678.922;  127.6; 7.6365e-003
 683.322;  128.48; 7.6781e-003
 687.726;  129.36; 7.7292e-003
 692.122;  130.24; 7.7693e-003
 696.517;  131.12; 7.8109e-003
 700.915;  132; 7.8536e-003
 705.302;  132.88; 7.8880e-003
 709.696;  133.76; 7.9302e-003
 714.097;  134.64; 7.9620e-003
 718.482;  135.52; 7.9870e-003
 722.874;  136.4; 8.0141e-003
 727.261;  137.28; 8.0349e-003
 731.655;  138.16; 8.0443e-003
 736.051;  139.04; 8.0542e-003
 740.452;  139.92; 8.0568e-003
 744.838;  140.8; 8.0458e-003
 749.236;  141.68; 8.0484e-003
 753.636;  142.56; 8.0292e-003
 758.038;  143.44; 8.0005e-003
 762.432;  144.32; 7.9583e-003
 766.822;  145.2; 7.9135e-003
 771.223;  146.08; 7.8432e-003
 775.61;  146.96; 7.7599e-003
 780.003;  147.84; 7.6708e-003
 784.397;  148.72; 7.5589e-003
 788.79;  149.6; 7.4385e-003
 793.188;  150.48; 7.3031e-003
 797.578;  151.36; 7.1417e-003
 801.985;  152.24; 6.9630e-003
 806.378;  153.12; 6.7479e-003
 810.777;  154; 6.5271e-003
 815.176;  154.88; 6.2849e-003
 819.566;  155.76; 6.0219e-003
 823.971;  156.64; 5.7286e-003
 828.378;  157.52; 5.4141e-003
 832.761;  158.4; 5.0865e-003
 837.151;  159.28; 4.7458e-003
 841.556;  160.16; 4.3781e-003
 845.95;  161.04; 3.9922e-003
 850.344;  161.92; 3.5771e-003
 854.733;  162.8; 3.1458e-003
 859.133;  163.68; 2.6896e-003
 863.519;  164.56; 2.2089e-003
 867.909;  165.44; 1.7578e-003
 872.327;  166.32; 1.2641e-003
 876.719;  167.2; 7.4427e-004
 881.1;  168.08; 1.9063e-004
 885.491;  168.96;-3.7500e-004
 889.888;  169.84;-9.6979e-004
 894.289;  170.72;-1.5865e-003
 898.684;  171.6;-2.2307e-003
 903.089;  172.48;-2.9005e-003
 907.484;  173.36;-3.5932e-003
 911.874;  174.24;-4.3115e-003
 916.289;  175.12;-5.0542e-003
 920.672;  176;-5.8224e-003
 925.083;  176.88;-6.6156e-003
 929.458;  177.76;-7.4349e-003
 933.863;  178.64;-8.2667e-003
 938.246;  179.52;-9.1141e-003
 942.653;  180.4;-9.9885e-003
 947.042;  181.28;-1.0879e-002
 951.44;  182.16;-1.1790e-002
 955.83;  183.04;-1.2720e-002
 960.212;  183.92;-1.3661e-002
 964.621;  184.8;-1.4631e-002
 969.008;  185.68;-1.5628e-002
 973.405;  186.56;-1.6667e-002
 977.816;  187.44;-1.7755e-002
 982.207;  188.32;-1.8879e-002
 986.607;  189.2;-2.0042e-002
 991.016;  190.08;-2.1234e-002
 995.401;  190.96;-2.2460e-002
 999.801;  191.84;-2.3702e-002
1004.21;  192.72;-2.4978e-002
1008.6;  193.6;-2.6287e-002
1013.01;  194.48;-2.7633e-002
1017.4;  195.36;-2.9019e-002
1021.79;  196.24;-3.0433e-002
1026.2;  197.12;-3.1883e-002
1030.59;  198;-3.3336e-002
1034.99;  198.88;-3.4834e-002
1039.4;  199.76;-3.6351e-002
1043.78;  200.64;-3.7850e-002
1048.17;  201.52;-3.9406e-002
1052.58;  202.4;-4.0949e-002
1056.98;  203.28;-4.2499e-002
1061.36;  204.16;-4.4063e-002
1065.76;  205.04;-4.5634e-002
1070.16;  205.92;-4.7188e-002
1074.55;  206.8;-4.8759e-002
1078.93;  207.68;-5.0315e-002
1083.35;  208.56;-5.1898e-002
1087.74;  209.44;-5.3505e-002
1092.15;  210.32;-5.5115e-002
1096.55;  211.2;-5.6738e-002
1100.93;  212.08;-5.8360e-002
1105.33;  212.96;-5.9962e-002
1109.74;  213.84;-6.1565e-002
1114.13;  214.72;-6.3168e-002
1118.54;  215.6;-6.4791e-002
1122.93;  216.48;-6.6379e-002
1127.32;  217.36;-6.7920e-002
1131.72;  218.24;-6.9516e-002
1136.11;  219.12;-7.1058e-002
1140.52;  220;-7.2572e-002
1144.92;  220.88;-7.4028e-002
1149.31;  221.76;-7.5440e-002
1153.71;  222.64;-7.6829e-002
1158.11;  223.52;-7.8149e-002
1162.51;  224.4;-7.9432e-002
1166.9;  225.28;-8.0607e-002
1171.28;  226.16;-8.1770e-002
1175.69;  227.04;-8.2852e-002
1180.11;  227.92;-8.3905e-002
1184.51;  228.8;-8.4864e-002
1188.91;  229.68;-8.5751e-002
1193.31;  230.56;-8.6623e-002
1197.71;  231.44;-8.7451e-002
1202.1;  232.32;-8.8217e-002
1206.49;  233.2;-8.8933e-002
1210.9;  234.08;-8.9621e-002
1215.29;  234.96;-9.0290e-002
1219.68;  235.84;-9.0896e-002
1224.1;  236.72;-9.1402e-002
1228.49;  237.6;-9.1975e-002
1232.88;  238.48;-9.2444e-002
1237.29;  239.36;-9.2885e-002
1241.68;  240.24;-9.3317e-002
1246.06;  241.12;-9.3687e-002
1250.48;  242;-9.4002e-002
1254.86;  242.88;-9.4283e-002
1259.29;  243.76;-9.4496e-002
1263.7;  244.64;-9.4677e-002
1268.1;  245.52;-9.4820e-002
1272.49;  246.4;-9.4828e-002
1276.89;  247.28;-9.4784e-002
1281.28;  248.16;-9.4683e-002
1285.68;  249.04;-9.4669e-002
1290.1;  249.92;-9.4760e-002
1294.48;  250.8;-9.4755e-002
1298.91;  251.68;-9.4862e-002
1303.31;  252.56;-9.5002e-002
1307.69;  253.44;-9.5119e-002
1312.11;  254.32;-9.5059e-002
1316.5;  255.2;-9.5080e-002
1320.89;  256.08;-9.5196e-002
1325.3;  256.96;-9.4990e-002
1329.69;  257.84;-9.4953e-002
1334.11;  258.72;-9.4891e-002
1338.49;  259.6;-9.5428e-002
1342.88;  260.48;-9.5720e-002
1347.3;  261.36;-9.6142e-002
1350.45;  261.99;-9.6625e-002