Folder: TestRepo (part 7)

File: K06_5_corrected.txt
#FILE:                 ;000397_K06_5_1350_Air-static.sle
#FORMAT:               ;NETZSCH5
#IDENTITY:             ;000397
#DECIMAL:              ;POINT
#SEPARATOR:            ;SEMICOLON
#MTYPE:                ;DIL
#MSUBTYPE:             ;
#INSTRUMENT:           ;NETZSCH DIL 402 C
#PROJECT:              ;
#DATE/TIME:            ;24.06.2021 13:17:17
#CORR. FILE:           ;
#LABORATORY:           ;ЌЊ
#OPERATOR:             ;Ћа«®ў Ќ.
#REMARK:               ;
#SAMPLE:               ;corr_5
#SAMPLE LENGTH /mm:    ;2.400
#MATERIAL:             ;бв ­¤ ав­л© ®Ўа §Ґж
#MEASMODE:             ;Standard Expansion
#PURGE GAS 1:          ;
#FLOW RATE 1 /(ml/min):;0
#CORR. CODE:           ;000
#RANGE:                ;40.0/5.0(K/¬Ё­)/1350.0
#SEGMENT:              ;S1/1

##Temp./шC;Time/min;dL/Lo
800.044	151.85	3.43E-01
801.479	152.14	3.35E-01
802.93	152.43	3.28E-01
804.376	152.72	3.20E-01
805.834	153.01	3.13E-01
807.273	153.3	3.05E-01
808.723	153.59	2.97E-01
810.184	153.88	2.89E-01
811.627	154.17	2.80E-01
813.083	154.46	2.70E-01
814.517	154.75	2.63E-01
815.977	155.04	2.53E-01
817.421	155.33	2.44E-01
818.867	155.62	2.34E-01
820.319	155.91	2.24E-01
821.774	156.2	2.14E-01
823.22	156.49	2.03E-01
824.673	156.78	1.92E-01
826.118	157.07	1.81E-01
827.566	157.36	1.69E-01
829.018	157.65	1.58E-01
830.454	157.94	1.46E-01
831.917	158.23	1.35E-01
833.369	158.52	1.23E-01
834.809	158.81	1.10E-01
836.258	159.1	9.86E-02
837.717	159.39	8.63E-02
839.16	159.68	7.30E-02
840.61	159.97	5.99E-02
842.057	160.26	4.67E-02
843.496	160.55	3.29E-02
844.95	160.84	1.90E-02
846.397	161.13	4.89E-03
847.856	161.42	-9.24E-03
849.29	161.71	-2.33E-02
850.747	162	-3.88E-02
852.187	162.29	-5.37E-02
853.633	162.58	-6.88E-02
855.088	162.87	-8.48E-02
856.53	163.16	-1.01E-01
857.981	163.45	-1.17E-01
859.431	163.74	-1.33E-01
860.877	164.03	-1.49E-01
862.331	164.32	-1.67E-01
863.758	164.61	-1.84E-01
865.217	164.9	-1.99E-01
866.67	165.19	-2.15E-01
868.115	165.48	-2.31E-01
869.574	165.77	-2.49E-01
871.014	166.06	-2.66E-01
872.466	166.35	-2.83E-01
873.906	166.64	-3.01E-01
875.352	166.93	-3.20E-01
876.814	167.22	-3.38E-01
878.261	167.51	-3.57E-01
879.706	167.8	-3.76E-01
881.147	168.09	-3.96E-01
882.608	168.38	-4.15E-01
884.046	168.67	-4.34E-01
885.491	168.96	-4.55E-01
886.952	169.25	-4.76E-01
888.391	169.54	-4.96E-01
889.841	169.83	-5.17E-01
891.284	170.12	-5.38E-01
892.742	170.41	-5.60E-01
894.194	170.7	-5.82E-01
895.639	170.99	-6.04E-01
897.09	171.28	-6.26E-01
898.549	171.57	-6.48E-01
899.992	171.86	-6.72E-01
901.435	172.15	-6.95E-01
902.883	172.44	-7.18E-01
904.338	172.73	-7.41E-01
905.785	173.02	-7.66E-01
907.233	173.31	-7.90E-01
908.695	173.6	-8.15E-01
910.13	173.89	-8.40E-01
911.571	174.18	-8.65E-01
913.025	174.47	-8.90E-01
914.471	174.76	-9.15E-01
915.926	175.05	-9.41E-01
917.38	175.34	-9.68E-01
918.823	175.63	-9.94E-01
920.27	175.92	-1.02E+00
921.735	176.21	-1.05E+00
923.172	176.5	-1.07E+00
924.624	176.79	-1.10E+00
926.085	177.08	-1.13E+00
927.522	177.37	-1.16E+00
928.973	177.66	-1.19E+00
930.412	177.95	-1.21E+00
931.862	178.24	-1.24E+00
933.308	178.53	-1.27E+00
934.77	178.82	-1.30E+00
936.2	179.11	-1.33E+00
937.649	179.4	-1.36E+00
939.104	179.69	-1.39E+00
940.552	179.98	-1.42E+00
941.999	180.27	-1.45E+00
943.44	180.56	-1.48E+00
944.882	180.85	-1.51E+00
946.346	181.14	-1.54E+00
947.788	181.43	-1.57E+00
949.241	181.72	-1.60E+00
950.69	182.01	-1.63E+00
952.144	182.3	-1.67E+00
953.582	182.59	-1.70E+00
955.029	182.88	-1.73E+00
956.472	183.17	-1.76E+00
957.921	183.46	-1.79E+00
959.379	183.75	-1.83E+00
960.824	184.04	-1.86E+00
962.267	184.33	-1.89E+00
963.727	184.62	-1.93E+00
965.167	184.91	-1.96E+00
966.617	185.2	-1.99E+00
968.062	185.49	-2.03E+00
969.511	185.78	-2.06E+00
970.96	186.07	-2.10E+00
972.408	186.36	-2.13E+00
973.856	186.65	-2.17E+00
975.316	186.94	-2.20E+00
976.76	187.23	-2.24E+00
978.209	187.52	-2.28E+00
979.652	187.81	-2.32E+00
981.102	188.1	-2.36E+00
982.555	188.39	-2.40E+00
984.018	188.68	-2.44E+00
985.455	188.97	-2.47E+00
986.897	189.26	-2.51E+00
988.355	189.55	-2.56E+00
989.802	189.84	-2.60E+00
991.26	190.13	-2.64E+00
992.703	190.42	-2.68E+00
994.16	190.71	-2.72E+00
995.617	191	-2.76E+00
997.052	191.29	-2.80E+00
998.506	191.58	-2.85E+00
999.964	191.87	-2.89E+00
1001.41	192.16	-2.93E+00
1002.854	192.45	-2.97E+00
1004.3	192.74	-3.02E+00
1005.74	193.03	-3.06E+00
1007.21	193.32	-3.10E+00
1008.65	193.61	-3.15E+00
1010.09	193.9	-3.20E+00
1011.54	194.19	-3.24E+00
1013.01	194.48	-3.29E+00
1014.45	194.77	-3.33E+00
1015.91	195.06	-3.38E+00
1017.35	195.35	-3.43E+00
1018.79	195.64	-3.48E+00
1020.245	195.93	-3.52E+00
1021.7	196.22	-3.57E+00
1023.15	196.51	-3.62E+00
1024.6	196.8	-3.67E+00
1026.047	197.09	-3.72E+00
1027.49	197.38	-3.77E+00
1028.94	197.67	-3.82E+00
1030.38	197.96	-3.87E+00
1031.85	198.25	-3.92E+00
1033.3	198.54	-3.97E+00
1034.74	198.83	-4.02E+00
1036.18	199.12	-4.07E+00
1037.63	199.41	-4.12E+00
1039.09	199.7	-4.17E+00
1040.54	199.99	-4.22E+00
1041.98	200.28	-4.27E+00
1043.427	200.57	-4.32E+00
1044.87	200.86	-4.37E+00
1046.33	201.15	-4.43E+00
1047.78	201.44	-4.48E+00
1049.23	201.73	-4.53E+00
1050.67	202.02	-4.58E+00
1052.11	202.31	-4.64E+00
1053.57	202.6	-4.69E+00
1055.02	202.89	-4.74E+00
1056.47	203.18	-4.79E+00
1057.92	203.47	-4.84E+00
1059.36	203.76	-4.90E+00
1060.82	204.05	-4.95E+00
1062.26	204.34	-5.00E+00
1063.71	204.63	-5.06E+00
1065.16	204.92	-5.11E+00
1066.61	205.21	-5.16E+00
1068.06	205.5	-5.21E+00
1069.5	205.79	-5.26E+00
1070.96	206.08	-5.32E+00
1072.41	206.37	-5.37E+00
1073.854	206.66	-5.42E+00
1075.3	206.95	-5.48E+00
1076.755	207.24	-5.53E+00
1078.203	207.53	-5.58E+00
1079.65	207.82	-5.64E+00
1081.104	208.11	-5.69E+00
1082.56	208.4	-5.74E+00
1084	208.69	-5.80E+00
1085.45	208.98	-5.85E+00
1086.9	209.27	-5.90E+00
1088.35	209.56	-5.96E+00
1089.79	209.85	-6.01E+00
1091.24	210.14	-6.07E+00
1092.71	210.43	-6.12E+00
1094.16	210.72	-6.17E+00
1095.6	211.01	-6.23E+00
1097.04	211.3	-6.29E+00
1098.49	211.59	-6.34E+00
1099.95	211.88	-6.39E+00
1101.39	212.17	-6.45E+00
1102.84	212.46	-6.50E+00
1104.29	212.75	-6.56E+00
1105.75	213.04	-6.61E+00
1107.18	213.33	-6.67E+00
1108.64	213.62	-6.72E+00
1110.08	213.91	-6.77E+00
1111.53	214.2	-6.83E+00
1112.99	214.49	-6.88E+00
1114.44	214.78	-6.94E+00
1115.88	215.07	-6.99E+00
1117.33	215.36	-7.04E+00
1118.79	215.65	-7.10E+00
1120.24	215.94	-7.15E+00
1121.69	216.23	-7.20E+00
1123.13	216.52	-7.26E+00
1124.57	216.81	-7.31E+00
1126.02	217.1	-7.36E+00
1127.48	217.39	-7.41E+00
1128.93	217.68	-7.47E+00
1130.37	217.97	-7.52E+00
1131.823	218.26	-7.57E+00
1133.27	218.55	-7.62E+00
1134.729	218.84	-7.68E+00
1136.17	219.13	-7.73E+00
1137.63	219.42	-7.78E+00
1139.08	219.71	-7.83E+00
1140.52	220	-7.88E+00
1141.97	220.29	-7.93E+00
1143.43	220.58	-7.98E+00
1144.87	220.87	-8.03E+00
1146.32	221.16	-8.08E+00
1147.76	221.45	-8.12E+00
1149.22	221.74	-8.17E+00
1150.67	222.03	-8.22E+00
1152.11	222.32	-8.27E+00
1153.56	222.61	-8.31E+00
1155.021	222.9	-8.36E+00
1156.46	223.19	-8.40E+00
1157.92	223.48	-8.44E+00
1159.37	223.77	-8.49E+00
1160.81	224.06	-8.53E+00
1162.26	224.35	-8.57E+00
1163.69	224.64	-8.62E+00
1165.14	224.93	-8.65E+00
1166.6	225.22	-8.69E+00
1168.052	225.51	-8.74E+00
1169.5	225.8	-8.77E+00
1170.94	226.09	-8.81E+00
1172.38	226.38	-8.85E+00
1173.85	226.67	-8.89E+00
1175.297	226.96	-8.93E+00
1176.75	227.25	-8.96E+00
1178.19	227.54	-8.99E+00
1179.646	227.83	-9.03E+00
1181.11	228.12	-9.06E+00
1182.55	228.41	-9.09E+00
1183.99	228.7	-9.13E+00
1185.44	228.99	-9.16E+00
1186.9	229.28	-9.19E+00
1188.37	229.57	-9.22E+00
1189.81	229.86	-9.25E+00
1191.27	230.15	-9.28E+00
1192.71	230.44	-9.31E+00
1194.15	230.73	-9.34E+00
1195.61	231.02	-9.37E+00
1197.06	231.31	-9.39E+00
1198.51	231.6	-9.42E+00
1199.96	231.89	-9.45E+00
1201.401	232.18	-9.48E+00
1202.85	232.47	-9.50E+00
1204.31	232.76	-9.52E+00
1205.75	233.05	-9.55E+00
1207.2	233.34	-9.57E+00
1208.66	233.63	-9.59E+00
1210.1	233.92	-9.62E+00
1211.56	234.21	-9.64E+00
1213	234.5	-9.66E+00
1214.46	234.79	-9.68E+00
1215.88	235.08	-9.71E+00
1217.34	235.37	-9.72E+00
1218.79	235.66	-9.75E+00
1220.25	235.95	-9.76E+00
1221.7	236.24	-9.79E+00
1223.14	236.53	-9.81E+00
1224.59	236.82	-9.83E+00
1226.04	237.11	-9.84E+00
1227.5	237.4	-9.86E+00
1228.95	237.69	-9.87E+00
1230	237.9	-9.88E+00

File: K06_10_corrected.txt
#FILE:                 ;000402_K06_10_1335_Air-static.sle
#FORMAT:               ;NETZSCH5
#IDENTITY:             ;000402
#DECIMAL:              ;POINT
#SEPARATOR:            ;SEMICOLON
#MTYPE:                ;DIL
#MSUBTYPE:             ;
#INSTRUMENT:           ;NETZSCH DIL 402 C
#PROJECT:              ;
#DATE/TIME:            ;28.06.2021 11:45:13
#CORR. FILE:           ;
#LABORATORY:           ;ЌЊ
#OPERATOR:             ;Ћа«®ў Ќ.
#REMARK:               ;
#SAMPLE:               ;K06_10
#SAMPLE LENGTH /mm:    ;3.540
#MATERIAL:             ;бв ­¤ ав­л© ®Ўа §Ґж
#MEASMODE:             ;Standard Expansion
#PURGE GAS 1:          ;
#FLOW RATE 1 /(ml/min):;0
#CORR. CODE:           ;000
#RANGE:                ;40.0/10.0(K/¬Ё­)/1335.0
#SEGMENT:              ;S1/1

##Temp./шC;Time/min;dL/Lo
800.046	75.87	2.06E-01
801.541	76.02	2.00E-01
803.033	76.17	1.94E-01
804.527	76.32	1.87E-01
806.017	76.47	1.81E-01
807.524	76.62	1.74E-01
809.02	76.77	1.68E-01
810.521	76.92	1.61E-01
812.008	77.07	1.53E-01
813.502	77.22	1.46E-01
815.016	77.37	1.37E-01
816.508	77.52	1.29E-01
817.991	77.67	1.21E-01
819.498	77.82	1.13E-01
820.993	77.97	1.05E-01
822.5	78.12	9.59E-02
823.991	78.27	8.72E-02
825.494	78.42	7.83E-02
826.997	78.57	6.93E-02
828.493	78.72	5.99E-02
829.987	78.87	5.05E-02
831.479	79.02	4.04E-02
832.985	79.17	3.04E-02
834.473	79.32	1.99E-02
835.982	79.47	9.20E-03
837.466	79.62	-1.27E-03
838.962	79.77	-1.20E-02
840.466	79.92	-2.33E-02
841.965	80.07	-3.49E-02
843.463	80.22	-4.71E-02
844.952	80.37	-5.90E-02
846.44	80.52	-7.07E-02
847.947	80.67	-8.35E-02
849.441	80.82	-9.60E-02
850.945	80.97	-1.09E-01
852.44	81.12	-1.22E-01
853.926	81.27	-1.35E-01
855.427	81.42	-1.49E-01
856.907	81.57	-1.62E-01
858.42	81.72	-1.76E-01
859.908	81.87	-1.91E-01
861.414	82.02	-2.05E-01
862.909	82.17	-2.20E-01
864.397	82.32	-2.36E-01
865.898	82.47	-2.51E-01
867.392	82.62	-2.66E-01
868.89	82.77	-2.82E-01
870.386	82.92	-2.99E-01
871.878	83.07	-3.15E-01
873.381	83.22	-3.32E-01
874.865	83.37	-3.50E-01
876.372	83.52	-3.67E-01
877.863	83.67	-3.84E-01
879.361	83.82	-4.02E-01
880.864	83.97	-4.21E-01
882.355	84.12	-4.39E-01
883.855	84.27	-4.58E-01
885.347	84.42	-4.76E-01
886.836	84.57	-4.95E-01
888.34	84.72	-5.15E-01
889.83	84.87	-5.34E-01
891.341	85.02	-5.54E-01
892.829	85.17	-5.74E-01
894.318	85.32	-5.94E-01
895.824	85.47	-6.14E-01
897.318	85.62	-6.34E-01
898.805	85.77	-6.55E-01
900.307	85.92	-6.76E-01
901.805	86.07	-6.97E-01
903.312	86.22	-7.18E-01
904.799	86.37	-7.39E-01
906.298	86.52	-7.61E-01
907.801	86.67	-7.82E-01
909.289	86.82	-8.05E-01
910.792	86.97	-8.26E-01
912.292	87.12	-8.49E-01
913.789	87.27	-8.71E-01
915.289	87.42	-8.94E-01
916.775	87.57	-9.17E-01
918.271	87.72	-9.40E-01
919.774	87.87	-9.64E-01
921.262	88.02	-9.88E-01
922.76	88.17	-1.01E+00
924.251	88.32	-1.04E+00
925.748	88.47	-1.06E+00
927.248	88.62	-1.08E+00
928.742	88.77	-1.11E+00
930.253	88.92	-1.13E+00
931.736	89.07	-1.16E+00
933.222	89.22	-1.18E+00
934.727	89.37	-1.21E+00
936.223	89.52	-1.23E+00
937.723	89.67	-1.25E+00
939.217	89.82	-1.28E+00
940.706	89.97	-1.30E+00
942.209	90.12	-1.33E+00
943.698	90.27	-1.35E+00
945.191	90.42	-1.38E+00
946.689	90.57	-1.41E+00
948.176	90.72	-1.43E+00
949.685	90.87	-1.46E+00
951.176	91.02	-1.48E+00
952.666	91.17	-1.51E+00
954.177	91.32	-1.54E+00
955.658	91.47	-1.56E+00
957.159	91.62	-1.59E+00
958.662	91.77	-1.62E+00
960.155	91.92	-1.64E+00
961.653	92.07	-1.67E+00
963.146	92.22	-1.70E+00
964.639	92.37	-1.73E+00
966.143	92.52	-1.75E+00
967.638	92.67	-1.78E+00
969.134	92.82	-1.81E+00
970.632	92.97	-1.84E+00
972.114	93.12	-1.87E+00
973.614	93.27	-1.90E+00
975.117	93.42	-1.93E+00
976.616	93.57	-1.96E+00
978.122	93.72	-1.99E+00
979.614	93.87	-2.02E+00
981.104	94.02	-2.05E+00
982.608	94.17	-2.08E+00
984.102	94.32	-2.11E+00
985.616	94.47	-2.14E+00
987.108	94.62	-2.17E+00
988.595	94.77	-2.20E+00
990.101	94.92	-2.23E+00
991.595	95.07	-2.26E+00
993.102	95.22	-2.30E+00
994.608	95.37	-2.33E+00
996.097	95.52	-2.36E+00
997.607	95.67	-2.39E+00
999.094	95.82	-2.43E+00
1000.59	95.97	-2.46E+00
1002.11	96.12	-2.49E+00
1003.6	96.27	-2.53E+00
1005.09	96.42	-2.56E+00
1006.59	96.57	-2.59E+00
1008.08	96.72	-2.63E+00
1009.6	96.87	-2.66E+00
1011.08	97.02	-2.70E+00
1012.6	97.17	-2.73E+00
1014.08	97.32	-2.77E+00
1015.58	97.47	-2.80E+00
1017.07	97.62	-2.84E+00
1018.57	97.77	-2.87E+00
1020.073	97.92	-2.91E+00
1021.57	98.07	-2.95E+00
1023.065	98.22	-2.98E+00
1024.57	98.37	-3.02E+00
1026.06	98.52	-3.05E+00
1027.55	98.67	-3.09E+00
1029.07	98.82	-3.13E+00
1030.56	98.97	-3.17E+00
1032.05	99.12	-3.20E+00
1033.54	99.27	-3.24E+00
1035.04	99.42	-3.28E+00
1036.54	99.57	-3.32E+00
1038.04	99.72	-3.36E+00
1039.53	99.87	-3.39E+00
1041.02	100.02	-3.43E+00
1042.52	100.17	-3.47E+00
1044.02	100.32	-3.52E+00
1045.52	100.47	-3.55E+00
1047.02	100.62	-3.59E+00
1048.51	100.77	-3.64E+00
1050	100.92	-3.68E+00
1051.51	101.07	-3.72E+00
1052.99	101.22	-3.76E+00
1054.49	101.37	-3.80E+00
1056.01	101.52	-3.85E+00
1057.51	101.67	-3.89E+00
1059	101.82	-3.93E+00
1060.49	101.97	-3.98E+00
1061.98	102.12	-4.02E+00
1063.48	102.27	-4.06E+00
1064.97	102.42	-4.11E+00
1066.47	102.57	-4.15E+00
1067.97	102.72	-4.20E+00
1069.47	102.87	-4.24E+00
1070.953	103.02	-4.29E+00
1072.46	103.17	-4.33E+00
1073.95	103.32	-4.38E+00
1075.46	103.47	-4.42E+00
1076.96	103.62	-4.47E+00
1078.448	103.77	-4.51E+00
1079.94	103.92	-4.56E+00
1081.45	104.07	-4.61E+00
1082.94	104.22	-4.66E+00
1084.46	104.37	-4.70E+00
1085.948	104.52	-4.75E+00
1087.44	104.67	-4.80E+00
1088.95	104.82	-4.84E+00
1090.44	104.97	-4.89E+00
1091.927	105.12	-4.94E+00
1093.44	105.27	-4.99E+00
1094.93	105.42	-5.04E+00
1096.44	105.57	-5.09E+00
1097.93	105.72	-5.14E+00
1099.43	105.87	-5.19E+00
1100.93	106.02	-5.24E+00
1102.43	106.17	-5.29E+00
1103.93	106.32	-5.34E+00
1105.42	106.47	-5.40E+00
1106.93	106.62	-5.45E+00
1108.42	106.77	-5.50E+00
1109.92	106.92	-5.55E+00
1111.41	107.07	-5.61E+00
1112.91	107.22	-5.66E+00
1114.4	107.37	-5.71E+00
1115.9	107.52	-5.77E+00
1117.4	107.67	-5.82E+00
1118.91	107.82	-5.87E+00
1120.4	107.97	-5.92E+00
1121.89	108.12	-5.98E+00
1123.4	108.27	-6.03E+00
1124.9	108.42	-6.09E+00
1126.4	108.57	-6.14E+00
1127.9	108.72	-6.19E+00
1129.39	108.87	-6.25E+00
1130.88	109.02	-6.30E+00
1132.38	109.17	-6.35E+00
1133.88	109.32	-6.40E+00
1135.39	109.47	-6.46E+00
1136.89	109.62	-6.51E+00
1138.38	109.77	-6.57E+00
1139.87	109.92	-6.62E+00
1141.38	110.07	-6.68E+00
1142.87	110.22	-6.73E+00
1144.36	110.37	-6.79E+00
1145.86	110.52	-6.84E+00
1147.36	110.67	-6.89E+00
1148.86	110.82	-6.94E+00
1150.36	110.97	-6.99E+00
1151.85	111.12	-7.05E+00
1153.34	111.27	-7.10E+00
1154.85	111.42	-7.15E+00
1156.35	111.57	-7.20E+00
1157.85	111.72	-7.25E+00
1159.34	111.87	-7.31E+00
1160.85	112.02	-7.35E+00
1162.34	112.17	-7.41E+00
1163.83	112.32	-7.46E+00
1165.33	112.47	-7.50E+00
1166.83	112.62	-7.56E+00
1168.33	112.77	-7.60E+00
1169.83	112.92	-7.65E+00
1171.32	113.07	-7.70E+00
1172.83	113.22	-7.75E+00
1174.32	113.37	-7.80E+00
1175.82	113.52	-7.85E+00
1177.33	113.67	-7.89E+00
1178.82	113.82	-7.94E+00
1180.32	113.97	-7.98E+00
1181.81	114.12	-8.03E+00
1183.31	114.27	-8.07E+00
1184.802	114.42	-8.11E+00
1186.31	114.57	-8.15E+00
1187.82	114.72	-8.20E+00
1189.3	114.87	-8.24E+00
1190.81	115.02	-8.28E+00
1192.31	115.17	-8.32E+00
1193.8	115.32	-8.36E+00
1195.3	115.47	-8.40E+00
1196.81	115.62	-8.44E+00
1198.3	115.77	-8.48E+00
1199.81	115.92	-8.52E+00
1201.302	116.07	-8.56E+00
1202.79	116.22	-8.59E+00
1204.3	116.37	-8.63E+00
1205.79	116.52	-8.66E+00
1207.29	116.67	-8.69E+00
1208.79	116.82	-8.74E+00
1210.29	116.97	-8.77E+00
1211.78	117.12	-8.80E+00
1213.27	117.27	-8.84E+00
1214.78	117.42	-8.86E+00
1216.28	117.57	-8.90E+00
1217.79	117.72	-8.93E+00
1219.29	117.87	-8.96E+00
1220.79	118.02	-8.99E+00
1222.28	118.17	-9.02E+00
1223.78	118.32	-9.05E+00
1225.271	118.47	-9.08E+00
1226.76	118.62	-9.11E+00
1228.28	118.77	-9.14E+00
1229.76	118.92	-9.17E+00
1229.97	118.94	-9.17E+00

File: K06_20_corrected.txt
#FILE:                 ;000393_K06_20_1450_Air-static.sle
#FORMAT:               ;NETZSCH5
#IDENTITY:             ;000393
#DECIMAL:              ;POINT
#SEPARATOR:            ;SEMICOLON
#MTYPE:                ;DIL
#MSUBTYPE:             ;
#INSTRUMENT:           ;NETZSCH DIL 402 C
#PROJECT:              ;
#DATE/TIME:            ;22.06.2021 12:24:13
#CORR. FILE:           ;
#LABORATORY:           ;ЌЊ
#OPERATOR:             ;Ћа«®ў Ќ.
#REMARK:               ;
#SAMPLE:               ;K06_20
#SAMPLE LENGTH /mm:    ;2.170
#MATERIAL:             ;бв ­¤ ав­л© ®Ўа §Ґж
#MEASMODE:             ;Standard Expansion
#PURGE GAS 1:          ;
#FLOW RATE 1 /(ml/min):;0
#CORR. CODE:           ;000
#RANGE:                ;40.0/20.0(K/¬Ё­)/1450.0
#SEGMENT:              ;S1/1

##Temp./шC;Time/min;dL/Lo
800,138	37,84	8,76E-01
801,70898	37,92	8,73E-01
803,31598	38	8,72E-01
804,89502	38,08	8,70E-01
806,48999	38,16	8,67E-01
808,08301	38,24	8,65E-01
809,672	38,32	8,62E-01
811,24402	38,4	8,59E-01
812,84399	38,48	8,56E-01
814,43298	38,56	8,53E-01
816,04199	38,64	8,50E-01
817,61902	38,72	8,46E-01
819,21002	38,8	8,42E-01
820,79797	38,88	8,38E-01
822,375	38,96	8,34E-01
823,96997	39,04	8,30E-01
825,56	39,12	8,25E-01
827,14398	39,2	8,21E-01
828,73901	39,28	8,16E-01
830,32898	39,36	8,11E-01
831,914	39,44	8,06E-01
833,50702	39,52	8,01E-01
835,09497	39,6	7,96E-01
836,69202	39,68	7,90E-01
838,27301	39,76	7,84E-01
839,86298	39,84	7,78E-01
841,45697	39,92	7,71E-01
843,03497	40	7,65E-01
844,63898	40,08	7,59E-01
846,22699	40,16	7,51E-01
847,80701	40,24	7,45E-01
849,40698	40,32	7,38E-01
850,99298	40,4	7,30E-01
852,57397	40,48	7,23E-01
854,16998	40,56	7,15E-01
855,75897	40,64	7,07E-01
857,35498	40,72	6,99E-01
858,93799	40,8	6,90E-01
860,52002	40,88	6,82E-01
862,12799	40,96	6,73E-01
863,698	41,04	6,65E-01
865,29102	41,12	6,55E-01
866,87097	41,2	6,45E-01
868,479	41,28	6,36E-01
870,07001	41,36	6,27E-01
871,664	41,44	6,17E-01
873,24298	41,52	6,07E-01
874,83301	41,6	5,96E-01
876,43298	41,68	5,85E-01
878,01202	41,76	5,75E-01
879,60999	41,84	5,64E-01
881,20502	41,92	5,53E-01
882,776	42	5,42E-01
884,367	42,08	5,30E-01
885,96399	42,16	5,19E-01
887,54797	42,24	5,07E-01
889,133	42,32	4,95E-01
890,73199	42,4	4,84E-01
892,31299	42,48	4,71E-01
893,92102	42,56	4,59E-01
895,495	42,64	4,47E-01
897,08502	42,72	4,34E-01
898,68103	42,8	4,21E-01
900,27899	42,88	4,08E-01
901,84497	42,96	3,95E-01
903,45203	43,04	3,83E-01
905,04498	43,12	3,70E-01
906,62402	43,2	3,56E-01
908,22498	43,28	3,43E-01
909,82098	43,36	3,29E-01
911,39697	43,44	3,16E-01
912,98499	43,52	3,02E-01
914,578	43,6	2,87E-01
916,15802	43,68	2,74E-01
917,74799	43,76	2,60E-01
919,341	43,84	2,45E-01
920,93597	43,92	2,30E-01
922,53198	44	2,16E-01
924,12299	44,08	2,01E-01
925,70099	44,16	1,86E-01
927,29498	44,24	1,71E-01
928,88	44,32	1,55E-01
930,466	44,4	1,40E-01
932,06403	44,48	1,24E-01
933,65698	44,56	1,09E-01
935,23199	44,64	9,34E-02
936,828	44,72	7,63E-02
938,41901	44,8	6,04E-02
940,00702	44,88	4,39E-02
941,60797	44,96	2,71E-02
943,19501	45,04	1,04E-02
944,771	45,12	-6,76E-03
946,35498	45,2	-2,43E-02
947,93903	45,28	-4,25E-02
949,53998	45,36	-6,11E-02
951,12201	45,44	-7,96E-02
952,703	45,52	-9,98E-02
954,30798	45,6	-1,19E-01
955,89203	45,68	-1,39E-01
957,47498	45,76	-1,59E-01
959,06799	45,84	-1,80E-01
960,66998	45,92	-2,00E-01
962,24701	46	-2,21E-01
963,836	46,08	-2,42E-01
965,41901	46,16	-2,63E-01
967,01501	46,24	-2,84E-01
968,62097	46,32	-3,06E-01
970,216	46,4	-3,27E-01
971,78699	46,48	-3,49E-01
973,38	46,56	-3,71E-01
974,961	46,64	-3,93E-01
976,55298	46,72	-4,16E-01
978,15601	46,8	-4,39E-01
979,73602	46,88	-4,62E-01
981,33398	46,96	-4,85E-01
982,91901	47,04	-5,09E-01
984,51001	47,12	-5,33E-01
986,10699	47,2	-5,57E-01
987,69501	47,28	-5,81E-01
989,276	47,36	-6,06E-01
990,87097	47,44	-6,31E-01
992,47302	47,52	-6,56E-01
994,05402	47,6	-6,81E-01
995,65698	47,68	-7,06E-01
997,24402	47,76	-7,32E-01
998,83301	47,84	-7,56E-01
1000,42102	47,92	-7,79E-01
1002,021	48	-8,03E-01
1003,604	48,08	-8,27E-01
1005,19897	48,16	-8,53E-01
1006,77802	48,24	-8,78E-01
1008,388	48,32	-9,05E-01
1009,98401	48,4	-9,31E-01
1011,56097	48,48	-9,56E-01
1013,15997	48,56	-9,80E-01
1014,75598	48,64	-1,00E+00
1016,33801	48,72	-1,03E+00
1017,92499	48,8	-1,05E+00
1019,526	48,88	-1,08E+00
1021,11499	48,96	-1,11E+00
1022,69897	49,04	-1,13E+00
1024,29797	49,12	-1,16E+00
1025,88794	49,2	-1,19E+00
1027,48901	49,28	-1,22E+00
1029,06604	49,36	-1,25E+00
1030,66602	49,44	-1,28E+00
1032,25305	49,52	-1,31E+00
1033,83496	49,6	-1,34E+00
1035,43103	49,68	-1,37E+00
1037,03003	49,76	-1,40E+00
1038,62097	49,84	-1,43E+00
1040,21997	49,92	-1,46E+00
1041,79297	50	-1,49E+00
1043,38794	50,08	-1,53E+00
1044,98303	50,16	-1,56E+00
1046,58105	50,24	-1,59E+00
1048,16602	50,32	-1,63E+00
1049,75305	50,4	-1,66E+00
1051,33801	50,48	-1,70E+00
1052,93506	50,56	-1,73E+00
1054,53198	50,64	-1,77E+00
1056,12903	50,72	-1,80E+00
1057,72705	50,8	-1,84E+00
1059,30701	50,88	-1,87E+00
1060,896	50,96	-1,91E+00
1062,49402	51,04	-1,94E+00
1064,08496	51,12	-1,98E+00
1065,67603	51,2	-2,02E+00
1067,27295	51,28	-2,06E+00
1068,85303	51,36	-2,09E+00
1070,453	51,44	-2,13E+00
1072,03296	51,52	-2,17E+00
1073,63	51,6	-2,21E+00
1075,23706	51,68	-2,24E+00
1076,80701	51,76	-2,28E+00
1078,40405	51,84	-2,32E+00
1079,99902	51,92	-2,36E+00
1081,58801	52	-2,40E+00
1083,19299	52,08	-2,44E+00
1084,78101	52,16	-2,48E+00
1086,35999	52,24	-2,52E+00
1087,96899	52,32	-2,56E+00
1089,53894	52,4	-2,60E+00
1091,14197	52,48	-2,64E+00
1092,73804	52,56	-2,68E+00
1094,31799	52,64	-2,72E+00
1095,91296	52,72	-2,76E+00
1097,50195	52,8	-2,80E+00
1099,08899	52,88	-2,84E+00
1100,69299	52,96	-2,88E+00
1102,28198	53,04	-2,93E+00
1103,87305	53,12	-2,97E+00
1105,46497	53,2	-3,01E+00
1107,06104	53,28	-3,06E+00
1108,64905	53,36	-3,10E+00
1110,24304	53,44	-3,14E+00
1111,84497	53,52	-3,19E+00
1113,42798	53,6	-3,23E+00
1115,01294	53,68	-3,28E+00
1116,61401	53,76	-3,32E+00
1118,21399	53,84	-3,36E+00
1119,79895	53,92	-3,41E+00
1121,39502	54	-3,46E+00
1122,98206	54,08	-3,50E+00
1124,57996	54,16	-3,55E+00
1126,18103	54,24	-3,60E+00
1127,76599	54,32	-3,64E+00
1129,37195	54,4	-3,69E+00
1130,93896	54,48	-3,74E+00
1132,55505	54,56	-3,79E+00
1134,13794	54,64	-3,83E+00
1135,74097	54,72	-3,88E+00
1137,33105	54,8	-3,93E+00
1138,92004	54,88	-3,98E+00
1140,51501	54,96	-4,03E+00
1142,11804	55,04	-4,08E+00
1143,69702	55,12	-4,13E+00
1145,29297	55,2	-4,18E+00
1146,88599	55,28	-4,23E+00
1148,48499	55,36	-4,28E+00
1150,08704	55,44	-4,33E+00
1151,66797	55,52	-4,38E+00
1153,26904	55,6	-4,43E+00
1154,86401	55,68	-4,48E+00
1156,45703	55,76	-4,53E+00
1158,05005	55,84	-4,58E+00
1159,64099	55,92	-4,64E+00
1161,23596	56	-4,69E+00
1162,83801	56,08	-4,74E+00
1164,41895	56,16	-4,79E+00
1166,01196	56,24	-4,85E+00
1167,61499	56,32	-4,90E+00
1169,20203	56,4	-4,96E+00
1170,80505	56,48	-5,01E+00
1172,39697	56,56	-5,06E+00
1173,98303	56,64	-5,12E+00
1175,59302	56,72	-5,17E+00
1177,17004	56,8	-5,22E+00
1178,76904	56,88	-5,28E+00
1180,36804	56,96	-5,33E+00
1181,95203	57,04	-5,38E+00
1183,55298	57,12	-5,44E+00
1185,14001	57,2	-5,49E+00
1186,745	57,28	-5,54E+00
1188,33704	57,36	-5,60E+00
1189,93701	57,44	-5,65E+00
1191,53699	57,52	-5,71E+00
1193,12195	57,6	-5,76E+00
1194,71301	57,68	-5,81E+00
1196,31897	57,76	-5,87E+00
1197,89905	57,84	-5,92E+00
1199,50305	57,92	-5,97E+00
1201,08704	58	-6,03E+00
1202,69495	58,08	-6,08E+00
1204,28503	58,16	-6,13E+00
1205,875	58,24	-6,19E+00
1207,474	58,32	-6,23E+00
1209,05505	58,4	-6,29E+00
1210,64294	58,48	-6,34E+00
1212,26599	58,56	-6,39E+00
1213,84497	58,64	-6,44E+00
1215,44397	58,72	-6,48E+00
1217,05103	58,8	-6,53E+00
1218,63501	58,88	-6,58E+00
1220,23804	58,96	-6,63E+00
1221,82495	59,04	-6,67E+00
1223,43103	59,12	-6,72E+00
1225,01196	59,2	-6,76E+00
1226,61096	59,28	-6,81E+00
1228,20996	59,36	-6,85E+00
1229,802	59,44	-6,89E+00
1229,99805	59,45	-6,90E+00